time,seconds_elapsed,z,y,x
1687692920564311600,0.0253115234375,-0.36833296165466306,-0.010142477699369191,0.31261644472759215
1687692920574274600,0.035274658203125,0.38623745165765283,-0.1449503227263689,0.30064198409439996
1687692920584238600,0.045238525390625,0.7979828540593386,-0.2953966125205159,0.3288655322063714
1687692920594202600,0.05520263671875,0.7760171059668064,-0.3870043443769216,0.2972668085728772
1687692920604165600,0.06516552734375,0.45670331902503963,-0.35687925522625447,0.15178095419770105
1687692920614129700,0.075129638671875,0.1710971558958292,-0.23720833518505094,-0.06575608224123716
1687692920624093400,0.085093505859375,0.15272446385920047,-0.05776829835772514,-0.19811109075602143
1687692920634056400,0.095056396484375,0.31997897285223004,0.09060542294606566,-0.13019037782680243
1687692920644020500,0.1050205078125,0.5251484942197799,0.17889438564330337,0.031005296918144448
1687692920653984500,0.114984619140625,0.6076683719962835,0.15541574876978992,0.15753087776023894
1687692920663947500,0.124947509765625,0.49072015491724014,0.06646072337925434,0.2295572359099984
1687692920673911600,0.13491162109375,0.2703442965894937,0.02724193492978811,0.2973679125934839
1687692920683875600,0.14487548828125,0.14858312627077103,0.04430222919359803,0.3328726489558816
1687692920693838600,0.154838623046875,0.3615852409601211,0.08381020984798669,0.30414303275160487
1687692920703802600,0.164802734375,0.5780109003573656,0.09846621944904327,0.2820383693787269
1687692920713766700,0.1747666015625,0.5929997951745987,0.023457740215957163,0.18906786126913502
1687692920723729700,0.184729736328125,0.447616341727972,-0.07503288302198052,0.08023434238890186
1687692920733693700,0.194693603515625,0.2884592144727707,-0.11765402726083993,0.07211091289436444
1687692920743656700,0.20465673828125,0.12933482044339178,-0.08548822606280446,0.11862064380329101
1687692920753620700,0.214620849609375,0.02326397120952606,-0.04932049574702978,0.11747306293705477
1687692920763584500,0.22458447265625,0.06223638368248939,-0.034501550669223065,0.07399270805297418
1687692920773547800,0.2345478515625,0.14944529605805873,-0.07005071069523691,0.02974322282676585
1687692920783511600,0.244511474609375,0.0676128160238266,-0.13241086688786743,0.11278085913336836
1687692920793475600,0.2544755859375,-0.11454290950298308,-0.17158567006513475,0.2068255814788863
1687692920803438600,0.2644384765625,-0.12248831554949283,-0.15863456468582152,0.22239815793558954
1687692920813402600,0.274402587890625,0.0294406140178442,-0.10839315470159053,0.1634444857181981
1687692920823366700,0.28436669921875,0.2049117472141981,-0.0769581519961357,0.08892996401451528
1687692920833329700,0.29432958984375,0.2872732195585966,-0.10218845484256744,0.09463385647824034
1687692920843293700,0.304293701171875,0.03903086466193199,-0.0792433403238654,0.13618357209330423
1687692920853257700,0.3142578125,-0.4346586604773998,-0.015845657777041194,0.14469782753633334
1687692920863220700,0.324220703125,-0.6750836196213961,0.044874768384546036,0.12382188397450372
1687692920873184800,0.334184814453125,-0.4533119230210781,0.11477160369232296,0.1028787751942873
1687692920883148500,0.3441484375,0.01263502516746521,0.030076866094768045,0.1751750545929186
1687692920893111800,0.35411181640625,0.16731413022577762,-0.15062807610183954,0.2639810634342022
1687692920903075600,0.36407568359375,-0.16927870829701422,-0.3144961575269699,0.2772662596060894
1687692920913039600,0.37403955078125,-0.5594155054807662,-0.30125746737793085,0.184863249186147
1687692920923002600,0.384002685546875,-0.5615326437652111,-0.20854542754143476,0.048024044462013984
1687692920932966700,0.393966552734375,-0.173066994664073,-0.13928747465908525,0.022866021400503814
1687692920942930700,0.4039306640625,0.19446984817683696,-0.13788096886202691,0.10941221381733193
1687692920952893700,0.413893798828125,0.14544015206992625,-0.16441066386923192,0.11690695348689333
1687692920962857700,0.423857666015625,-0.2549474054932594,-0.10667933652102947,0.05947694717282429
1687692920972821800,0.43382177734375,-0.5505751964211464,0.022135405571013688,0.021400296229496598
1687692920982784800,0.44378466796875,-0.35602059257030483,0.09105901193246245,-0.050872894554492086
1687692920992748800,0.453748779296875,0.1835977410286665,0.08235445808172226,-0.027980989794060586
1687692921002712800,0.463712890625,0.44021687912642954,0.04136734478548169,0.21787231454160064
1687692921012675600,0.473675537109375,0.15483867953419683,-0.019386837515234946,0.28427933497224
1687692921022639900,0.483639892578125,-0.26070260801911355,-0.03589329728856683,0.2928237298252061
1687692921032603600,0.493603759765625,-0.43261751003861426,-0.057764498965442175,0.5204235115244984
1687692921042566700,0.503566650390625,-0.2774772172093391,-0.14655892696678638,0.6864343040667474
1687692921052530400,0.513530517578125,-0.059901218733191486,-0.16960370246767997,0.4386493010161444
1687692921062493400,0.523493408203125,0.010480477482080459,-0.1617126569569111,0.13898310315134002
1687692921072457500,0.53345751953125,-0.22990473417341709,-0.192325968015939,-0.02018434456847608
1687692921082421500,0.54342138671875,-0.5291197359383106,-0.15544409808143972,-0.1919507780279964
1687692921092384500,0.553384521484375,-0.3742389708280563,-0.07419862415492534,-0.3701013960992917
1687692921102348500,0.5633486328125,0.17238953379392624,-0.05668371799141168,-0.4352750388100743
1687692921112312600,0.5733125,0.46403146995604033,-0.14534823600277305,-0.3518859769836068
1687692921122275600,0.583275634765625,0.2707172215551138,-0.22493834393769502,-0.13793606005012987
1687692921132239600,0.593239501953125,-0.334552272605896,-0.11467501145005225,-0.027975930026452985
1687692921142203600,0.60320361328125,-0.758182758590579,0.054367842264473436,0.16762692250199615
1687692921152166700,0.613166748046875,-0.49756665981113907,0.14436682374998927,0.2905163296656683
1687692921162130700,0.623130615234375,0.24818740983903406,0.14715806190371514,0.2975326381685212
1687692921172094500,0.633094482421875,0.70566229775846,-0.034692981588095424,0.4478972775612026
1687692921182057700,0.6430576171875,0.5724018283039332,-0.16850648181550204,0.5452209393789992
1687692921192021500,0.653021484375,-0.019154782325029374,-0.0963892670445144,0.42921435053162277
1687692921201985500,0.662985595703125,-0.5503711982816457,0.08856441863775252,0.29683972400091585
1687692921211948500,0.672948486328125,-0.3715075000375509,0.2093645619045943,0.09866205254839733
1687692921221912600,0.68291259765625,0.3545750699371099,0.07579203082621097,0.12920916650341824
1687692921231876600,0.692876708984375,0.7356915253192186,-0.18727803697660564,0.15703237191988154
1687692921241839600,0.702839599609375,0.2633464005261659,-0.38920360798686743,-0.0021897833955474197
1687692921251803600,0.7128037109375,-0.612760726699233,-0.41465339880287644,-0.19325862748986108
1687692921261767700,0.722767578125,-1.0600906527012586,-0.3139209879875183,-0.41627135539352894
1687692921271730700,0.732730712890625,-0.6940764893829822,-0.2434735330596566,-0.5871934469833969
1687692921281694700,0.74269482421875,0.04521802886426449,-0.23283348110169172,-0.5374426700603216
1687692921291658800,0.75265869140625,0.4395633836537599,-0.2446576282776892,-0.3675603698469698
1687692921301621800,0.762621826171875,0.1385147367209196,-0.19263978320546446,-0.17159761623125522
1687692921311585800,0.772585693359375,-0.47371232149302955,-0.06476838637813925,-0.15814906445750965
1687692921321549600,0.782549560546875,-0.8247773374825715,0.165011990763247,-0.1215655929476954
1687692921331512600,0.7925126953125,-0.6417676254749298,0.3255584534849971,-0.08047991464780643
1687692921341476600,0.8024765625,-0.23640344854295253,0.3760371793564409,0.03298588540926575
1687692921351440600,0.812440673828125,-0.029681437036395072,0.23510500623025,0.16443950637122615
1687692921361403600,0.822403564453125,-0.2435498131662607,-0.025094109246134755,0.1725109682165086
1687692921371367700,0.83236767578125,-0.6340922685414553,-0.22366934691518545,0.17343823912926018
1687692921381331700,0.842331787109375,-0.9442886830478906,-0.29711715270280836,0.145896846328862
1687692921391294700,0.852294677734375,-0.8888976352155208,-0.29960414721295237,0.17403775765867902
1687692921401258800,0.8622587890625,-0.47918578446805477,-0.2585894152574241,0.2075909215618856
1687692921411221800,0.8722216796875,-0.11265724188685416,-0.15101765994131564,0.4070434717884287
1687692921421185800,0.882185791015625,-0.0374532400816679,-0.044485330675542355,0.5743544236764312
1687692921431149800,0.89214990234375,-0.20137129812836646,0.0032208617426455017,0.6932821972001344
1687692921441112600,0.902112548828125,-0.44431203948557374,0.015494798512756824,0.6321123467706143
1687692921451076900,0.912076904296875,-0.5092231953352689,0.06598331512585281,0.5549800437839701
1687692921461040600,0.92204052734375,-0.18310732716321945,0.13375563256032763,0.37694896043911574
1687692921471003600,0.932003662109375,0.2707259893834591,0.13401545254029332,0.22352272325241937
1687692921480967400,0.941967529296875,0.5108920053303242,0.011439166446402669,0.11727754036495461
1687692921490931700,0.951931640625,0.2753290992647409,-0.20153737541027367,0.06691697924677283
1687692921500894500,0.96189453125,-0.3584931201636791,-0.2883958669129759,-0.1358088752957061
1687692921510858500,0.9718583984375,-0.8530559219837188,-0.1887461367677897,-0.1002314572895877
1687692921520822500,0.981822509765625,-0.8289145834177732,-0.06571867284029721,0.057556938895676285
1687692921530785500,0.99178564453125,-0.4358920016646385,-0.03368080887086689,0.2454951568140648
1687692921540749600,1.00174951171875,-0.15083061293661593,-0.16849376846440137,0.26054528029924257
1687692921550713600,1.011713623046875,-0.23184359328150747,-0.28636553012914956,0.2700385368422605
1687692921560676600,1.021676513671875,-0.47285482788085936,-0.3482017355129123,0.15544535845676435
1687692921570640600,1.031640625,-0.34488018987476826,-0.32422450146749615,-0.0016765183774754403
1687692921580604700,1.041604736328125,0.2790723774462938,-0.23743023430742322,-0.0320586144965142
1687692921590567700,1.051567626953125,0.8706225583344698,-0.17600085615888236,-0.07310443571005017
1687692921600531500,1.061531494140625,0.9832406372547149,-0.15383680901527405,-0.1475284295860678
1687692921610495500,1.07149560546875,0.5632458774238824,0.020289266247674822,-0.14453127533039078
1687692921620458500,1.08145849609375,0.040246670192480086,0.2694285699840635,-0.044743031763657924
1687692921630422500,1.091422607421875,-0.02709726576209068,0.5108016236331313,0.05919375545042566
1687692921640386600,1.101386474609375,0.4193038549572229,0.5726827641371637,0.08655980995022691
1687692921650349600,1.111349609375,0.8082797916680574,0.422848980218172,0.125464043424651
1687692921660313600,1.121313720703125,0.8025894710719585,0.1857419865157455,0.27492442745398726
1687692921670277600,1.131277587890625,0.4731622863948345,0.07702259553447366,0.2763108585773967
1687692921680240600,1.14124072265625,-0.020710195073485375,-0.027765155086293816,0.3359754007441923
1687692921690204700,1.15120458984375,-0.30183716696202756,-0.10227240679897368,0.33970987456478174
1687692921700167700,1.161167724609375,-0.16441490165293215,-0.18269231662154198,0.1557125762918964
1687692921710131700,1.171131591796875,0.1150999588638544,-0.22403321179151534,0.04280665687359869
1687692921720095700,1.181095703125,0.18387012822926044,-0.3438193557102233,0.0383659710124135
1687692921730058800,1.191058837890625,0.042738487008214,-0.47623161083757876,0.07166373538244515
1687692921740022800,1.201022705078125,-0.1406844819754362,-0.44441586518622933,0.1122632741332054
1687692921749986600,1.210986572265625,-0.3307470351040363,-0.311191636088863,0.02434336394406855
1687692921759949600,1.220949462890625,-0.36754502614736556,-0.18526969282887876,0.02321549242530018
1687692921769913600,1.23091357421875,-0.26407822193205355,-0.03785414903275668,0.08611859638821333
1687692921779877600,1.240877685546875,-0.09451134434342384,0.07924874715134501,0.18607432374265043
1687692921789840400,1.25084033203125,0.054015667825937266,0.21563523967191575,0.26864574904330074
1687692921799804400,1.260804443359375,0.061144496792554855,0.22517142204120755,0.27087708829194307
1687692921809768400,1.2707685546875,-0.15261574278771878,0.19661307075060902,0.1557106765957549
1687692921819731500,1.2807314453125,-0.4125613949596882,0.16437493496872485,0.01683821247834712
1687692921829695500,1.290695556640625,-0.5835188501238823,0.14867738042548298,-0.21293441974800079
1687692921839659500,1.300659423828125,-0.6349579454600811,0.13699395689442753,-0.43987423970121886
1687692921849622500,1.31062255859375,-0.47242286620438095,0.07870002722740173,-0.5666624078691005
1687692921859586600,1.320586669921875,-0.12959493268430233,0.011692045228928328,-0.5089832490995526
1687692921869550600,1.330550537109375,0.18205752584934234,-0.004835749593377113,-0.4033153181107714
1687692921879513600,1.340513671875,0.3539168982893228,-0.014553718270361423,-0.2847930201154202
1687692921889477400,1.350477294921875,0.4258627750813961,0.06687251905053854,-0.08113562034387141
1687692921899441400,1.36044140625,0.4469885652184486,0.12394107164107263,0.16587587758358566
1687692921909404400,1.370404296875,0.48614627113044256,0.1778838934265077,0.35534156079757956
1687692921919368400,1.380368408203125,0.46718087389767166,0.07588862306848168,0.46456280035376546
1687692921929332500,1.39033251953125,0.3975964655399322,-0.09047909315265715,-0.00795267603751272
1687692921939295500,1.40029541015625,0.3265343858450651,-0.20569062263220547,-0.044210130463354286
1687692921949259500,1.410259521484375,0.06121697750687599,-0.3105420861389488,0.17076083661355076
1687692921959223600,1.4202236328125,-0.1929115128189325,-0.34920550572797654,0.310770889926143
1687692921969186600,1.4301865234375,-0.24533961919248104,-0.1941973879110068,0.3538675061896443
1687692921979150600,1.440150634765625,-0.23041794439256189,-0.058877793969586485,0.30301008319891987
1687692921989114600,1.450114501953125,-0.03640168520212173,0.026614523746445774,0.23205763789098707
1687692921999077600,1.46007763671875,0.2435334465533495,0.05473309538029134,0.1621353028157726
1687692922009041700,1.470041748046875,0.356865226700902,0.09093845429271459,0.18553780571315437
1687692922019005400,1.48000537109375,0.2299550030559301,0.061016851824894545,0.17579349701851604
1687692922028968400,1.489968505859375,-0.0022205986589193343,0.0036854835797101256,0.05822809788919985
1687692922038932500,1.499932373046875,-0.2062970640927553,-0.06442198409326375,-0.10921402436411008
1687692922048895200,1.509895263671875,-0.21943945426046846,-0.05383380845300853,-0.1684387138089165
1687692922058859300,1.519859375,-0.06136369250118732,-0.021330811189860105,-0.13945386246824637
1687692922068823600,1.529823486328125,0.21120880153179167,0.03879311038330197,-0.02500252197254449
1687692922078786300,1.539786376953125,0.37624329638779164,0.11224924560785293,0.03573682808522135
1687692922088750300,1.549750244140625,0.39255554876327514,0.12987893725745378,0.12251134936520829
1687692922098714400,1.55971435546875,0.3392863153904676,0.057510962595790624,0.2032270637965761
1687692922108677400,1.569677490234375,0.24034020346999166,0.018443857576698065,0.2695022562747821
1687692922118641400,1.579641357421875,0.24946868182122706,0.06505465597361326,0.1923374757906422
1687692922128605400,1.58960546875,0.3233236071050167,0.07532317120544611,0.18996437171744182
1687692922138568400,1.599568359375,0.48501814388334746,-0.019791545858606693,0.1880737173989415
1687692922148532500,1.609532470703125,0.6865577843159437,-0.21365392966158686,0.10432499194722622
1687692922158496300,1.619496337890625,0.7192232055991887,-0.3780544374629855,0.0774084165142849
1687692922168459500,1.62945947265625,0.6630524055659771,-0.37334056068360805,0.03300859043141827
1687692922178423300,1.63942333984375,0.5929062716722489,-0.16387882201485335,-0.0726146063664928
1687692922188387300,1.64938720703125,0.3992173447400331,0.046345571589469906,-0.25934779587667434
1687692922198350300,1.659350341796875,0.09353519278764724,0.15600005146376789,-0.3384728070504963
1687692922208314400,1.669314453125,-0.1684703145235777,0.1463288445379585,-0.26064106882391497
1687692922218278400,1.6792783203125,-0.3812666775077581,0.1431060100339353,-0.025382406401913613
1687692922228241400,1.689241455078125,-0.5735539209485053,0.17335143762864172,0.14971711700307205
1687692922238205400,1.699205322265625,-0.6265478445112704,0.19016499058976769,0.2729566710449755
1687692922248169500,1.70916943359375,-0.44243397065401074,0.07275215167365968,0.35737204371187836
1687692922258132500,1.719132568359375,-0.16000877564847468,-0.13329839031212032,0.37445067734997717
1687692922268096500,1.729096435546875,-0.04813596213757992,-0.3128291010975838,0.41658893344271924
1687692922278060500,1.739060546875,-0.22450199834704399,-0.41100115990564223,0.46611857842840254
1687692922288023600,1.7490234375,-0.5929553715109824,-0.33347149163186546,0.6126330451989546
1687692922297987600,1.758987548828125,-0.9279249927461147,-0.15573972002714873,0.5263883382130414
1687692922307951400,1.768951416015625,-1.1010136147201062,-0.0038888241320848465,0.32990185298416763
1687692922317914400,1.778914306640625,-1.0223977586448192,0.10822247430980204,0.09298024405231699
1687692922327878400,1.78887841796875,-0.7912947545975446,0.17832900684550404,-0.1239313904972747
1687692922337842400,1.798842529296875,-0.4901613519906997,0.12299582668021321,-0.22748625658852978
1687692922347805400,1.808805419921875,-0.1950309891909361,-0.06917188203409314,-0.14718650254691018
1687692922357769500,1.81876953125,-0.11801906118094921,-0.22966376502439378,-0.004478643251396715
1687692922367732500,1.828732421875,-0.18375614646077154,-0.27693989546224473,-0.00129164724573493
1687692922377696500,1.838696533203125,-0.31848493490219115,-0.16799802083671092,0.03374145301692188
1687692922387660500,1.84866064453125,-0.38601007264256476,0.08650427123755217,0.11710044849868863
1687692922397623600,1.85862353515625,-0.35714170555472374,0.2713207404062152,0.14561207457073033
1687692922407587600,1.868587646484375,-0.30833354324400425,0.2795616222679615,0.1979160979068838
1687692922417551600,1.878551513671875,-0.3316004370629787,0.15370646063387394,0.20133476551026105
1687692922427514600,1.8885146484375,-0.4473334331333637,-0.021743483643978833,0.23704554583877324
1687692922437478700,1.898478759765625,-0.5981266366690396,-0.14661357976347208,0.24531249372353775
1687692922447442400,1.9084423828125,-0.6837468185484409,-0.2152129226066172,0.1718015595718287
1687692922457405400,1.918405517578125,-0.6045692369371652,-0.21652678168416023,0.24637619569860397
1687692922467369500,1.928369384765625,-0.3829278887182474,-0.20281462880447507,0.25959855576734986
1687692922477333500,1.93833349609375,-0.12716799779832363,-0.23170170059278605,0.2783408665676601
1687692922487296500,1.948296630859375,0.06988543713092804,-0.19325842656046152,0.4600616895422339
1687692922497260500,1.958260498046875,0.18624913232028484,-0.06138429689779877,0.5000291774671525
1687692922507224600,1.968224609375,0.2716220614403486,0.06416998209357261,0.5547894896479323
1687692922517187300,1.978187255859375,0.3138952690243721,0.18468787435293196,0.5162304437488318
1687692922527151600,1.988151611328125,0.3552659748107195,0.2721439664226025,0.42778457345683124
1687692922537115600,1.99811572265625,0.3988081794172525,0.2886287258207798,0.4086358920790255
1687692922547078400,2.008078369140625,0.4112684325397014,0.3284999868296087,0.39515813247710463
1687692922557042400,2.01804248046875,0.4823772739857435,0.32273733164966106,0.4205256518371403
1687692922567006500,2.02800634765625,0.5695137056469917,0.3057186845704913,0.5222188339760526
1687692922576969500,2.037969482421875,0.6825193225800991,0.24281229267194865,0.4932023636544123
1687692922586933200,2.047933349609375,0.7490455124109983,0.10553491572625935,0.4463799318008125
1687692922596897300,2.057897216796875,0.6817851630866527,-0.005056114345788955,0.4292565822381526
1687692922606860300,2.0678603515625,0.5365560234189033,-0.04489537278115749,0.433709469993785
1687692922616824300,2.07782421875,0.37012393672466276,-0.006835618173703551,0.3940740270348266
1687692922626788400,2.087788330078125,0.2762327701061964,0.02715659473389387,0.3422861913261935
1687692922636751400,2.09775146484375,0.3645926060825586,0.0013072101410478354,0.29136496411794793
1687692922646715400,2.10771533203125,0.5815981111943721,-0.05879515718743205,0.26264373214952647
1687692922656678400,2.117678466796875,0.7571428941488265,-0.08651048178263009,0.20355989421382545
1687692922666642400,2.127642333984375,0.8072744140177964,-0.05254259959869086,0.20574752218490466
1687692922676606500,2.1376064453125,0.6821329536110162,0.018946400271356106,0.20978004737030714
1687692922686569500,2.147569580078125,0.3884691562324762,0.12380195543132722,0.2539732997640967
1687692922696533500,2.157533447265625,0.21701310389637946,0.1847811786595732,0.16373758691325782
1687692922706497500,2.16749755859375,0.1732277381837368,0.22171697073839602,0.12150867512868717
1687692922716460500,2.17746044921875,0.3027583734601736,0.268789322232455,0.2721724435984157
1687692922726424600,2.187424560546875,0.4208674510121345,0.22064313096180557,0.34743418520651753
1687692922736388400,2.197388427734375,0.3686275606870651,0.05735007294565439,0.3270368189418688
1687692922746351400,2.207351318359375,0.1166553716123104,-0.11240816249661147,0.2602046136354096
1687692922756315400,2.2173154296875,-0.2615063256174326,-0.17608436972387134,0.18688783208262175
1687692922766279400,2.227279541015625,-0.5190320571660996,-0.05955445112213492,0.14594638455901293
1687692922776242400,2.237242431640625,-0.4418482797205448,0.06746851218231022,0.13985738350152968
1687692922786206200,2.247206298828125,-0.10388999806344508,0.10903780928067862,0.16913871530443428
1687692922796170200,2.257170166015625,0.2603630008012056,-0.005642535931617021,0.25397191152460874
1687692922806133200,2.26713330078125,0.49887891145348545,-0.21198080881759523,0.282303870180808
1687692922816097300,2.27709716796875,0.4486988762676716,-0.22749095102995634,0.25479378583412615
1687692922826061300,2.287061279296875,0.13466098390221595,-0.0669978259306401,0.26961210985742506
1687692922836024300,2.2970244140625,-0.116154436352849,0.17952011632621287,0.19811857994273305
1687692922845988400,2.30698828125,-0.22894728731811045,0.3813366740040481,0.19675141977537422
1687692922855952400,2.316952392578125,-0.17100830856859683,0.4262296356324106,0.2861431195501238
1687692922865915400,2.326915283203125,-0.0927612858057022,0.29635164822302756,0.466779307359457
1687692922875879200,2.336879150390625,-0.14651742591261863,0.16168182342723011,0.634962767765671
1687692922885843200,2.34684326171875,-0.16978899590671062,-0.0003914104703813791,0.6352763637594878
1687692922895806200,2.35680615234375,-0.1909130324780941,-0.13213731064349413,0.546912509195134
1687692922905770200,2.366770263671875,-0.31979134132564063,-0.2094780322164297,0.4304136433187872
1687692922915734300,2.376734375,-0.4738064295172691,-0.2302086855560541,0.3380979093234986
1687692922925697300,2.386697265625,-0.6038759939759969,-0.16494535526782272,0.40176662736404684
1687692922935661300,2.396661376953125,-0.768865480646491,-0.06863609465695918,0.34087384031023826
1687692922945625300,2.406625244140625,-0.8681856865763664,-0.06805456844195723,0.26266137740407136
1687692922955588400,2.41658837890625,-0.8830559234499931,-0.16110395047403872,0.10554291636962443
1687692922965552400,2.426552490234375,-0.8116156580924987,-0.20928557838425038,0.10067615058347583
1687692922975516400,2.436516357421875,-0.7237912441670894,-0.25037958612106737,0.07276004271917044
1687692922985479400,2.4464794921875,-0.7308376555472612,-0.20934797609597444,0.09603555823601782
1687692922995443500,2.456443359375,-0.8202209893524647,-0.11468458299599588,0.13514065717794
1687692923005407200,2.4664072265625,-0.9015987113565206,-0.0035327772360295054,0.13990184369776398
1687692923015370500,2.47637060546875,-0.9519745613753795,0.10978548584282398,0.0990173505257815
1687692923025334300,2.486334228515625,-0.8737427361816167,0.13365429107770324,0.07545724591389298
1687692923035297300,2.49629736328125,-0.7062339601665735,0.07177870353162288,0.09306808673255144
1687692923045261300,2.50626123046875,-0.5929857666492462,-0.025424217983335256,0.11640245629716664
1687692923055225300,2.516225341796875,-0.638800007840991,-0.19764139088504015,0.08041537977792322
1687692923065188400,2.526188232421875,-0.7332634213894605,-0.27397600415535267,-0.053760268292762335
1687692923075152400,2.53615234375,-0.8008867588073014,-0.20207279746122658,-0.11506243986506014
1687692923085116400,2.546116455078125,-0.710602676770091,-0.0145650433819741,-0.05690002762321383
1687692923095079400,2.556079345703125,-0.49149932259619233,0.04359123138003051,0.04766538548376411
1687692923105043500,2.56604345703125,-0.2669213364034891,-0.060858227197080846,0.13117149781864135
1687692923115007500,2.576007568359375,-0.27778993642032146,-0.105205902967602,0.3463219861809164
1687692923124970500,2.585970458984375,-0.44405894150733943,-0.16314765819609164,0.3091604955874383
1687692923134934500,2.5959345703125,-0.5644792186111212,-0.09435878413021564,0.31807332189399745
1687692923144898300,2.605898193359375,-0.5238526091903448,0.08909406853504478,0.35154004962276664
1687692923154861600,2.615861572265625,-0.31669805148541924,0.12663301413878797,0.4156211843891069
1687692923164825300,2.625825439453125,-0.020693243938684464,0.001626139897108078,0.3907509470267221
1687692923174789400,2.635789306640625,0.1682043570637703,-0.0657766135726124,0.48118335149344055
1687692923184752000,2.645752197265625,0.1948603087991476,-0.017262027380988,0.5649034719051793
1687692923194716400,2.65571630859375,0.2389186462342739,0.05467888097502291,0.487643597016111
1687692923204680400,2.665680419921875,0.37810266051888464,0.11747253321409225,0.4830963820405304
1687692923214643200,2.675643310546875,0.5360515810281038,0.1488059021759778,0.5033714005671441
1687692923224607200,2.685607177734375,0.5790817444592714,0.15247129281572996,0.5122372824594378
1687692923234571500,2.695571533203125,0.34984278071820735,0.11191131889037788,0.5242227211443707
1687692923244534300,2.7055341796875,-0.00822656107544899,0.13911248341836036,0.5898401986325159
1687692923254498300,2.715498291015625,-0.28983576352298257,0.2156388929337263,0.4694236843883991
1687692923264462300,2.72546240234375,-0.19699732082784174,0.24028007078059016,0.36998219016641376
1687692923274425300,2.73542529296875,0.2063105080962181,0.1290107030555606,0.26173885573167355
1687692923284389400,2.745389404296875,0.5810311249613762,-0.06213781867884099,0.247534791149199
1687692923294353200,2.755353271484375,0.7865396690249442,-0.2140376682821661,0.19999672183953224
1687692923304316200,2.765316162109375,0.8051637054741382,-0.16573197560086844,0.20242036878988146
1687692923314280200,2.7752802734375,0.7187690320909023,0.029308292875066397,0.21516312864813952
1687692923324244200,2.785244140625,0.67833999106884,0.24862799321338533,0.17194675846248864
1687692923334207200,2.795207275390625,0.6741822868674993,0.33436844047158953,0.10043182043358682
1687692923344171300,2.805171142578125,0.5830284362584353,0.3281120834905654,0.21020388053925707
1687692923354135300,2.81513525390625,0.38075931250751016,0.27824644801616666,0.2111653459825553
1687692923364098300,2.825098388671875,0.11272796903550625,0.2511715402163565,0.22062729407185688
1687692923374062300,2.835062255859375,-0.06774550249278545,0.19194244859106838,0.2193965284341946
1687692923384026400,2.8450263671875,-0.03852583774924278,0.05169548125006258,0.08549345022719353
1687692923393989400,2.8549892578125,0.08308218783438205,-0.11885755783170461,-0.013820252896659075
1687692923403953400,2.864953369140625,0.23931378303170203,-0.2731191681303084,-0.02073171278554946
1687692923413916400,2.87491650390625,0.3457178097426891,-0.27195056274235246,0.04910473410449922
1687692923423880400,2.88488037109375,0.43069151041209697,-0.12454203320890664,0.05568297998365015
1687692923433844200,2.89484423828125,0.4896276835054159,0.02995565086789429,0.06770564540643245
1687692923443807500,2.904807373046875,0.4223299247801304,0.12695223615579307,0.06286207783278078
1687692923453771300,2.914771240234375,0.3359539560973644,0.1833094256065786,0.028203619568794965
1687692923463735300,2.9247353515625,0.24507190816700458,0.2392871872857213,0.08625321908593177
1687692923473698300,2.9346982421875,0.16125146918594838,0.2994406272143125,0.2152095250731334
1687692923483662300,2.944662353515625,0.1559247212052345,0.26949118689149615,0.2896284043826163
1687692923493626400,2.95462646484375,0.11803601231575012,0.12336246803551912,0.250526739506796
1687692923503589400,2.96458935546875,-0.03669219258129597,-0.014857669652998446,0.29814556416878474
1687692923513553400,2.974553466796875,-0.2627653857678175,-0.07365881818979979,0.2662523511007428
1687692923523517400,2.984517333984375,-0.4847276365041733,-0.011515446553006767,0.24371837466619908
1687692923533480400,2.99448046875,-0.49995910790562625,0.0256952169444412,0.16639292372763156
1687692923543444500,3.004444580078125,-0.30693419784009457,0.017968860476091503,0.08379592559430747
1687692923553408500,3.014408447265625,-0.0373702379733324,-0.07343640761077404,-0.030942871806956825
1687692923563371500,3.02437158203125,0.08656769186258316,-0.13029241342917083,-0.00160279555413872
1687692923573335300,3.034335205078125,0.07201192776560783,-0.19057832063101232,-0.08780497857257723
1687692923583299300,3.04429931640625,-0.060714873203635215,-0.12671594318188725,-0.13145170299950987
1687692923593262300,3.054262451171875,-0.18425299006700516,-0.018241539937630294,-0.14568926799278706
1687692923603226400,3.064226318359375,-0.30614918494224547,0.07463358150608837,-0.16565712026637047
1687692923613190400,3.0741904296875,-0.46300504951775073,0.0712657855734229,-0.15455314059108494
1687692923623153400,3.0841533203125,-0.6254173791766167,0.00952266530059278,-0.1351332045238465
1687692923633117400,3.094117431640625,-0.7592623705208301,-0.025389804257079956,-0.091806761559844
1687692923643081500,3.10408154296875,-0.7215770752489566,-0.10506970936730503,-0.07615322882141917
1687692923653044200,3.114044189453125,-0.5844377185344696,-0.1711309120349586,-0.15900482277031988
1687692923663008500,3.124008544921875,-0.39671617557406424,-0.2162114321246743,-0.21850144275799394
1687692923672972500,3.13397265625,-0.20630700096487997,-0.23884528873711822,-0.2958440274944529
1687692923682935300,3.143935302734375,-0.07255202599167823,-0.18648747112080455,-0.3240723796457052
1687692923692899300,3.1538994140625,0.055342532515525816,-0.0751745565149933,-0.2939990206822753
1687692923702863400,3.16386328125,0.1742600038409233,0.04468501796610653,-0.25277071904130277
1687692923712826400,3.173826416015625,0.12322656669616698,0.12066307288371025,-0.2349484639616683
1687692923722790100,3.1837900390625,-0.08829787665605544,0.12498707356266676,-0.22897315241172908
1687692923732754200,3.193754150390625,-0.3558428979158401,0.08342091826945543,-0.2632158329490572
1687692923742717200,3.20371728515625,-0.6411971321105957,0.09130283062569797,-0.21708744777422398
1687692923752681200,3.21368115234375,-0.8681915317952632,0.10461948138177395,-0.18061781190242618
1687692923762645200,3.223645263671875,-0.9941372943222522,0.008795520069822668,-0.1927095239734277
1687692923772608300,3.233608154296875,-1.0486123963534832,-0.18958835974559188,-0.24248086876049638
1687692923782572300,3.243572265625,-0.9773135852932929,-0.3675480218220502,-0.29812698733247817
1687692923792536000,3.2535361328125,-0.8209726845026015,-0.4874579382508993,-0.36559465926457196
1687692923802499000,3.2634990234375,-0.5126812268346548,-0.48541430359408255,-0.2841838387085125
1687692923812463000,3.273463134765625,-0.14365852935016155,-0.4146099980525672,-0.24566464989576486
1687692923822427100,3.28342724609375,0.164752755305171,-0.33003048433251675,-0.19299433226417748
1687692923832390100,3.29339013671875,0.36790333806574343,-0.1915665279507637,-0.15441380518563091
1687692923842354200,3.303354248046875,0.45130818198323247,0.005384031125903129,-0.12076510848607867
1687692923852318000,3.31331787109375,0.44458910286128517,0.2525216396510601,-0.05765895623173564
1687692923862281000,3.323281005859375,0.47986441438198085,0.40903585118204355,-0.02354333614017814
1687692923872245000,3.333244873046875,0.5550713387966155,0.4022368386916816,0.05318363744858652
1687692923882209000,3.343208984375,0.5494973380565643,0.2775930256087333,0.12142770058065652
1687692923892172000,3.353172119140625,0.42148178351819515,0.12814108061417936,0.18518194148018954
1687692923902136000,3.363135986328125,0.17375731501579283,0.10148023350797593,0.24446144811846315
1687692923912100000,3.37310009765625,0.05255202501416206,0.11271459809727966,0.23651238881014286
1687692923922063000,3.38306298828125,0.18271920462846755,0.06988960184939205,0.1603267555564642
1687692923932027100,3.393027099609375,0.44887423283457756,-0.06336845645233988,0.06923537572436034
1687692923941990000,3.402989990234375,0.7222171267181634,-0.2278936866119504,0.014684943434596061
1687692923951954200,3.4129541015625,0.8538438574910163,-0.3315819515582174,0.001713672050088644
1687692923961918200,3.422918212890625,0.8175456326633691,-0.3056768912553787,0.026462292326800523
1687692923971881000,3.432880859375,0.727624538719654,-0.14903846882283686,-0.024092056064121424
1687692923981845000,3.442844970703125,0.6561416032642126,0.054656596077978604,-0.09956797014586627
1687692923991808800,3.452808837890625,0.5630272662371397,0.21727898829095063,-0.08603453483395278
1687692924001772000,3.46277197265625,0.502807483074069,0.2502452922169119,-0.02302219834290445
1687692924011735800,3.47273583984375,0.4476514130413532,0.236393219409883,-0.01016015948653221
1687692924021699800,3.482699951171875,0.39932957294285293,0.2558445735286921,0.15729688634127378
1687692924031662800,3.492662841796875,0.40063656388819213,0.16833996614217758,0.22731848053988069
1687692924041627000,3.502626953125,0.4803577508568763,0.04606631625667214,0.16111505638994275
1687692924051591000,3.5125908203125,0.45720074715316295,-0.07964549138396979,0.15271536723729223
1687692924061554000,3.522553955078125,0.25918109754025936,-0.048498877165839074,0.1707197739508003
1687692924071518000,3.53251806640625,-0.023665537747740745,0.06544343609549105,0.1990546186838299
1687692924081482000,3.54248193359375,-0.18150339909791946,0.11153861312046646,0.17489541566763073
1687692924091445000,3.552445068359375,-0.08144318845570087,0.08294234097227454,0.036315431690774856
1687692924101409000,3.562408935546875,0.14758184027373789,-0.0566528113964945,-0.025236075000092385
1687692924111373000,3.572373046875,0.34310324333012104,-0.2496484223023057,-0.11940372047238051
1687692924121336000,3.582336181640625,0.31624037084579465,-0.3353874813210219,-0.08208638173006474
1687692924131300000,3.592300048828125,0.07177285831272602,-0.2578348705630749,-0.01788129179049283
1687692924141264000,3.602263916015625,-0.20258418104946613,-0.1282467329457402,-0.10109207444060593
1687692924151227000,3.612226806640625,-0.3368284008443355,0.04856156713850796,-0.11348565553501248
1687692924161191000,3.62219091796875,-0.2916010196298361,0.1333308312769979,-0.04882485771719366
1687692924171155000,3.632155029296875,-0.23745792603194713,0.08009491565190255,0.038443091369234024
1687692924181118000,3.642117919921875,-0.2776484821230173,-0.0693350367065519,0.12365341380611061
1687692924191082000,3.65208203125,-0.5026958393931389,-0.1968445414189249,0.10344937815647572
1687692924201046000,3.6620458984375,-0.7621247742146253,-0.2009774034399539,-0.06183098121937364
1687692924211009000,3.672009033203125,-0.8540414258897304,-0.19736593494452534,-0.24710830936543643
1687692924220973000,3.68197314453125,-0.6134428637444973,-0.19643873709701,-0.27949305054377765
1687692924230937000,3.69193701171875,-0.24711656573712823,-0.2007099116101861,-0.17743414036501198
1687692924240900000,3.701900146484375,0.11288695898950099,-0.26592954888716336,-0.08499532797932624
1687692924250864000,3.711864013671875,0.23023148190975187,-0.33116971749551594,-0.029830234389938412
1687692924260828000,3.721827880859375,-0.030855156990885733,-0.2671141555618495,0.02504369423314929
1687692924270791200,3.731791259765625,-0.4593243151783943,-0.07318630530722439,0.03749390088561922
1687692924280755000,3.7417548828125,-0.6855559137970209,0.18940591585077343,0.003073964085243642
1687692924290719000,3.751718994140625,-0.5172393285304308,0.3455422339800745,0.04012012120336294
1687692924300682000,3.761681884765625,-0.11152853011786937,0.21055968997329472,0.2233025959620252
1687692924310646000,3.77164599609375,0.1943295629233122,-0.10853424367271364,0.24306692502014338
1687692924320610000,3.781610107421875,0.22911913675367832,-0.33712168470248577,0.194377676381357
1687692924330573000,3.791572998046875,0.022798107263445853,-0.31075996667332945,0.20712087463103235
1687692924340537000,3.801537109375,-0.16209434975087642,-0.07355828042477369,0.1871374229295179
1687692924350501000,3.811501220703125,-0.20081483328938482,0.049313189223408695,0.16065153053142128
1687692924360464100,3.821464111328125,-0.06524842498004436,0.016795432782545684,0.10180183014515787
1687692924370428200,3.83142822265625,-0.011213467931747436,-0.04025178475901484,0.08474971918780357
1687692924380392200,3.84139208984375,-0.10246259560883045,-0.08361812134198844,0.13986384977493435
1687692924390355200,3.851355224609375,-0.26921090864539143,-0.09332067325413226,0.04269570731241256
1687692924400319000,3.861319091796875,-0.3471487193286419,-0.07154204523153603,-0.01774915331080556
1687692924410283000,3.871282958984375,-0.2477718147754669,-0.1561689052246511,-0.11291687920372932
1687692924420246000,3.88124609375,-0.07645604769289494,-0.26327085107192394,-0.13871910018660127
1687692924430210000,3.8912099609375,-0.025484569868445394,-0.27583076517656446,-0.06120499480813741
1687692924440174000,3.901174072265625,-0.17322949174940586,-0.1446486363660544,0.011059957870468496
1687692924450136800,3.91113671875,-0.41754619763493533,0.052665129999816415,0.08732117711100727
1687692924460100900,3.921100830078125,-0.41945816873610015,0.15465930437929928,0.10419570301175117
1687692924470065200,3.931065185546875,-0.15513152500092983,0.05539082863666117,0.060807373792678115
1687692924480028000,3.94102783203125,0.1271855334550142,-0.11684892142303287,0.07715897179786116
1687692924489992000,3.950991943359375,0.25184710139036176,-0.24185908360034225,0.08531151778902858
1687692924499956000,3.9609560546875,0.07623334485292434,-0.18187303612791,0.1367129845285788
1687692924509919000,3.9709189453125,-0.20687281815409658,-0.01015394894145429,0.20493114603441207
1687692924519883000,3.980883056640625,-0.36116146259009835,0.08661233472190796,0.18351433706153183
1687692924529846800,3.9908466796875,-0.19887012896239756,0.02105250570513308,0.1982917080199346
1687692924539810000,4.00081005859375,0.2526794605612755,-0.12586480624526739,0.20289441604241729
1687692924549773800,4.01077392578125,0.727525754520297,-0.183308183497563,0.3635906990310177
1687692924559737900,4.02073779296875,1.0041817184746265,-0.17251345243453978,0.44937662939876316
1687692924569700900,4.030700927734375,1.0586842930346727,-0.14156447968035935,0.4699367484770715
1687692924579665000,4.040664794921875,0.892961231392622,-0.015601327627152203,0.4669615320585668
1687692924589629000,4.05062890625,0.6728864018380641,0.20188114734664558,0.38642990548983214
1687692924599592000,4.060592041015625,0.6911375133216381,0.3231557031922042,0.41787637943737205
1687692924609556000,4.070555908203125,0.8825590798437595,0.35550124487131834,0.5579232210963964
1687692924619520000,4.08052001953125,1.0043167430311442,0.27322569724470375,0.6051495941083878
1687692924629483000,4.09048291015625,1.0251906042337418,0.04352108875326812,0.561815771555528
1687692924639447000,4.100447021484375,0.8386053718268871,-0.13040471469722686,0.5448606181666255
1687692924649411000,4.1104111328125,0.49339609612822527,-0.18109642573222517,0.4936114193793386
1687692924659374000,4.1203740234375,0.2862316015511751,-0.13623057130649685,0.4164094486899674
1687692924669338000,4.130338134765625,0.3486713988512754,-0.022952713303267955,0.43982875659167764
1687692924679302000,4.140302001953125,0.6347644687145948,0.07659399485886097,0.4726762564435601
1687692924689265000,4.150264892578125,1.0232552522569893,0.0494286322966218,0.48797640916705126
1687692924699229000,4.16022900390625,1.3143442307114601,-0.053523427329584955,0.4768285538174212
1687692924709193000,4.17019287109375,1.3869313280165194,-0.09547280978672205,0.506109958685562
1687692924719156000,4.180156005859375,1.2362059290200471,-0.005871887708082795,0.5070960471134632
1687692924729120000,4.1901201171875,1.0023036496430635,0.11217603424116969,0.4852320058297366
1687692924739084000,4.200083984375,0.6926695451945066,0.2521727531481534,0.47912915890999136
1687692924749047000,4.210047119140625,0.3250491157233715,0.30896058910116553,0.4666384375840425
1687692924759011000,4.220010986328125,0.07321896546781062,0.24567798430137336,0.3537429299619049
1687692924768975000,4.22997509765625,0.05727379283905029,0.14367474983260034,0.28967085528485476
1687692924778938000,4.239938232421875,0.2941448588937521,0.020378040509670972,0.27483788168169554
1687692924788902100,4.249902099609375,0.6007897183984517,-0.2028183551315218,0.2196043624985963
1687692924798866000,4.259865966796875,0.7263929510980844,-0.44388110072240233,0.16582082292810083
1687692924808829200,4.2698291015625,0.5343342557162046,-0.47649603392742573,0.11910714867860078
1687692924818793000,4.27979296875,0.13822539838552475,-0.26267661150582133,0.08129004372060299
1687692924828757000,4.289757080078125,-0.20565409001410007,0.10897526543848216,0.09944003291726111
1687692924838720000,4.299719970703125,-0.22862404671311376,0.3860352070838213,0.16185871436409652
1687692924848684000,4.30968408203125,-0.08934183275103569,0.36552119216956197,0.15954802626892922
1687692924858646800,4.319646728515625,-0.01820201164484024,0.09287424466088413,0.14854133295565844
1687692924868610800,4.32961083984375,-0.23301672871410845,-0.20867175733484328,0.15560717968866228
1687692924878574800,4.339574951171875,-0.6827911252588034,-0.34853505912050603,0.06898578487746417
1687692924888537900,4.349537841796875,-1.0611275945335625,-0.30488048018068076,0.021154431709647176
1687692924898502000,4.359501953125,-1.167926173520088,-0.2166467548020184,0.004116130081936717
1687692924908466000,4.3694658203125,-0.9907704482376575,-0.1738327183395624,0.04637735496722162
1687692924918430000,4.379429931640625,-0.7264969959944486,-0.2082744285803288,0.09009564679302275
1687692924928393000,4.38939306640625,-0.6203022281199694,-0.25995792713165283,0.19592881481349467
1687692924938357000,4.39935693359375,-0.8388917875528336,-0.21936828872039912,0.18042663671188056
1687692924948320000,4.409320068359375,-1.3323363989979027,-0.12080277361534535,0.1335630325976759
1687692924958283800,4.41928369140625,-1.752180352181196,-0.06513897325620055,-0.04632628236711025
1687692924968247800,4.429247802734375,-1.886039372050762,-0.005664090176299214,-0.20117424118630586
1687692924978210800,4.4392109375,-1.6670692888677119,-0.08671221489980817,-0.19217055825851856
1687692924988174800,4.4491748046875,-1.3949328481644392,-0.3142083535615355,-0.029928616730496287
1687692924998139000,4.459138916015625,-1.5036363839894533,-0.5422692134339362,0.10618439261093734
1687692925008102000,4.469101806640625,-1.982079825657606,-0.6467117308136076,0.14386376959867775
1687692925018066000,4.47906591796875,-2.483595515355468,-0.553827987672016,0.020146569841355086
1687692925028030000,4.489030029296875,-2.5384832898408174,-0.4146917580518871,-0.13337576639726756
1687692925037993000,4.498992919921875,-2.0166063646376133,-0.2590766873177141,-0.14877404573298988
1687692925047957000,4.50895703125,-1.1422159782022236,-0.2058366800393909,-0.05895392794571817
1687692925057921000,4.518921142578125,-0.2847545147359371,-0.3389436394326389,0.1414561970002949
1687692925067884000,4.528884033203125,0.17450725660026073,-0.4192611117940396,0.18658325964547692
1687692925077848000,4.53884814453125,0.14921324086785315,-0.3433346409332007,0.18826288329549132
1687692925087811800,4.548811767578125,-0.17161328872442244,-0.07723879556842148,0.30609782008118924
1687692925097775000,4.558775146484375,-0.5403782120555639,0.33109416804127395,0.384094302149117
1687692925107739000,4.56873876953125,-0.5452098699957132,0.5770793185956776,0.4149164336532354
1687692925117703000,4.578702880859375,-0.21374387296736239,0.49400472954586144,0.6165611418955028
1687692925127666000,4.588666015625,0.00040799627900123595,0.20964031010605394,0.7728237898182123
1687692925137630000,4.5986298828125,-0.11181026966869831,-0.15167327430583535,0.7535180547151714
1687692925147594000,4.608593994140625,-0.40773850484788415,-0.34844833068512376,0.5719499198179692
1687692925157557000,4.618556884765625,-0.6384387733131647,-0.2917603749100119,0.4064406470570713
1687692925167521000,4.62852099609375,-0.5466214903593063,-0.17711546633727848,0.319063319312036
1687692925177485000,4.638485107421875,-0.154286306348443,-0.158063925191015,0.2982494446683675
1687692925187448000,4.648447998046875,0.196045719191432,-0.16204181584604083,0.3613776626240462
1687692925197412000,4.658412109375,0.29026830972135065,-0.15486929386816917,0.5623946674220264
1687692925207376100,4.668376220703125,0.08901683858036995,-0.06749430421069263,0.6707426678076386
1687692925217339100,4.678339111328125,-0.23429332452118395,0.053451604202389716,0.6227618231665343
1687692925227303000,4.688302978515625,-0.40107203269600866,0.16179536680430173,0.48226314608678217
1687692925237267000,4.698266845703125,-0.3219996650248766,0.17044351429268717,0.388246599522978
1687692925247230000,4.70822998046875,-0.1392635092616081,0.11545951289124787,0.3939062327198684
1687692925257194000,4.718194091796875,0.019817045626044274,0.06419621251337229,0.5079495221376419
1687692925267158000,4.728157958984375,0.04448854554593563,0.1068226905144751,0.5468120444953442
1687692925277121000,4.73812109375,-0.037329321441054344,0.17032595232762396,0.5947068182881922
1687692925287085000,4.7480849609375,0.06755261026918888,0.1539877617932856,0.45497693362385033
1687692925297049000,4.758049072265625,0.30469840161204337,0.12566796849891543,0.4240651510749012
1687692925307012000,4.76801220703125,0.5236491955727338,0.061611675912886854,0.5036836813867092
1687692925316976000,4.77797607421875,0.5395505290597676,-0.024157193722203374,0.4983035957835614
1687692925326940200,4.787940185546875,0.21669453946650027,-0.05498027507439256,0.5262497334599494
1687692925336903000,4.79790283203125,-0.31511341264247894,-0.02008219936825335,0.45729945828728374
1687692925346867200,4.8078671875,-0.7798328648626804,-0.01545088630579412,0.24955314523428676
1687692925356831000,4.8178310546875,-0.8888321687638759,-0.08278145132213831,0.2414962416373193
1687692925366794000,4.8277939453125,-0.6746826376050711,-0.19018771387822925,0.2979348988264799
1687692925376757800,4.8377578125,-0.3061000851035118,-0.3314454656969756,0.3250054957773536
1687692925386721800,4.8477216796875,0.20481822371184824,-0.4687709195680916,0.30358832147829234
1687692925396684800,4.857684814453125,0.5892220302015543,-0.4566408482480794,0.33676424956694245
1687692925406648800,4.86764892578125,0.7887608522057533,-0.325103695454821,0.3855934546656906
1687692925416612900,4.87761279296875,0.9463011919140815,-0.11630509686991572,0.4517620632305741
1687692925426576000,4.887575927734375,1.101300614967942,0.23811310200504957,0.5653508868791163
1687692925436540000,4.897539794921875,1.2021364861577748,0.5655124341163784,0.7368470520298928
1687692925446504000,4.90750390625,1.3025965097725392,0.6787575588937849,0.8023870803676545
1687692925456467000,4.917467041015625,1.2913240051299333,0.5971284924771636,0.79511029429771
1687692925466431000,4.927430908203125,1.1850830600261688,0.49053471534773707,0.8312768555697053
1687692925476395000,4.93739501953125,1.0354676680982113,0.3572545182794332,0.7831932812064886
1687692925486358000,4.94735791015625,0.938461584329605,0.2377575665656477,0.7636688618514686
1687692925496321800,4.95732177734375,0.8203150973767042,0.08671900996677577,0.7923850340522826
1687692925506285800,4.967285888671875,0.5856038397043943,-0.04143690289035439,0.707940325693041
1687692925516248800,4.977248779296875,0.327519305229187,-0.11763334979899227,0.6249198049180209
1687692925526212900,4.987212890625,0.2502554482847452,-0.0732167735107243,0.5467828184008598
1687692925536177000,4.997177001953125,0.46831484636366366,0.011715133843570947,0.4347741035506129
1687692925546140000,5.007139892578125,0.8170072880029677,0.006074935999512672,0.3469125724852085
1687692925556104000,5.01710400390625,1.0752572421729565,-0.11064078749790787,0.27676914200522
1687692925566068000,5.02706787109375,1.0664935054808855,-0.20658450273200868,0.1909467886172235
1687692925576031000,5.037031005859375,0.7751502600044011,-0.10736870702467859,0.13615823672264812
1687692925585995000,5.0469951171875,0.369260013371706,0.1497718976639211,0.11279482372663914
1687692925595959000,5.056958984375,0.19395488439202307,0.4480369052276015,0.15535262040570377
1687692925605922000,5.066922119140625,0.34283728587031365,0.5872364824075251,0.25393486744984983
1687692925615886000,5.076885986328125,0.44120530564188953,0.49545938533358275,0.3358844710577279
1687692925625849900,5.086849853515625,0.3012082214087248,0.237493581867218,0.336240079562366
1687692925635813000,5.096813232421875,-0.09325520680248736,0.08080635185688734,0.2715278803508729
1687692925645777000,5.10677685546875,-0.5058107565432787,0.08691475173458456,0.23985519643202421
1687692925655741000,5.116740966796875,-0.5885732109040022,0.07633388261795043,0.18565576953701673
1687692925665704000,5.126703857421875,-0.36042262692153454,-0.020792174268513916,0.16756218670271336
1687692925675668000,5.13666796875,-0.13830255527496338,-0.18107669811844826,0.14125066449083387
1687692925685632000,5.146632080078125,-0.08388006021380424,-0.31261246267221865,0.22201799951158463
1687692925695595000,5.156594970703125,-0.3331523426800966,-0.26172778634838756,0.2502594668727368
1687692925705559000,5.16655908203125,-0.7449030057787894,-0.16584741867408156,0.23003004105351865
1687692925715523000,5.176523193359375,-1.0165051934748888,-0.047012145739421245,0.10074768144972622
1687692925725486000,5.186486083984375,-1.0236007046937943,0.08314633911177516,0.033136034469679
1687692925735450000,5.1964501953125,-0.8357809620559215,0.0934646848347038,0.05375299830175936
1687692925745414100,5.2064140625,-0.6820499515026808,0.005550327603518962,0.060594388629123565
1687692925755377200,5.216377197265625,-0.6907593276590108,-0.045325069435313343,0.15181633603833614
1687692925765341000,5.2263408203125,-0.7906558721721172,-0.050927784813195466,0.1844706514056772
1687692925775305000,5.236304931640625,-0.8727297597467899,-0.04776274491101503,0.14263576217368246
1687692925785268000,5.24626806640625,-0.8398807985901832,-0.04094597756825387,0.1150608689624816
1687692925795232300,5.256232177734375,-0.7141600769907236,0.012542378447949885,0.17880283490233123
1687692925805196300,5.2661962890625,-0.574392125338316,0.06114785779342055,0.26278270222879946
1687692925815159300,5.2761591796875,-0.4216477877348661,0.0650697804775089,0.2905763527572155
1687692925825123300,5.286123291015625,-0.3034247284144163,0.029437106886506078,0.29219306723885236
1687692925835087400,5.29608740234375,-0.2229635367333889,0.03253331933617592,0.2512039081159979
1687692925845050000,5.306050048828125,-0.25592940226793287,-0.009853066298738122,0.3229435948114842
1687692925855014400,5.316014404296875,-0.25444354762434956,-0.01329297761954367,0.290004690349102
1687692925864978400,5.325978515625,-0.26321137596964833,0.06175393392778933,0.417255982516706
1687692925874941200,5.335941162109375,-0.22652385956346988,0.09401552365049719,0.4613140276908874
1687692925884905200,5.3459052734375,-0.23307401185929774,0.0575499794319272,0.472525815122202
1687692925894868200,5.3558681640625,-0.24870120458006859,0.05865187625922262,0.39785906199887394
1687692925904832000,5.36583203125,-0.15979074898362158,0.08013970464169978,0.38062801427803933
1687692925914796000,5.375796142578125,-0.0012339257091283798,0.07676913223005831,0.4127417930278927
1687692925924759000,5.385759033203125,0.16423194630146026,0.039050665340945125,0.39400640515871344
1687692925934723000,5.39572314453125,0.1622521706610918,-0.0236821235563606,0.29577589416168626
1687692925944687000,5.40568701171875,-0.08102408626079559,0.025532281467691063,0.20233342115879058
1687692925954650000,5.415650146484375,-0.3453513145178556,0.08094415289238095,0.1042634344857186
1687692925964614100,5.4256142578125,-0.33934476757943627,0.19735095657110213,0.06782638570927083
1687692925974578200,5.435578125,-0.11328618744015694,0.24469445315673946,0.16986673731803892
1687692925984541200,5.445541259765625,0.1983323688238859,0.0655376171849668,0.2261304763317108
1687692925994505200,5.455505126953125,0.27077976539731025,-0.09941314491033554,0.14884060816317796
1687692926004469200,5.46546923828125,0.057796355408430096,-0.14105638402774928,0.07450410990752279
1687692926014432300,5.475432373046875,-0.23855858075022696,0.04960545016825199,0.07013174004219472
1687692926024396300,5.485396240234375,-0.3960644336670637,0.3639548927009105,0.1408863612230867
1687692926034360000,5.495360107421875,-0.20586860954761504,0.4564302011720836,0.18384674735367296
1687692926044323300,5.5053232421875,0.15615502282977103,0.23982019818387923,0.21708003165274858
1687692926054287000,5.515287109375,0.28288229112327096,-0.04466280613429844,0.31074710719175636
1687692926064251100,5.525251220703125,0.04462006297111511,-0.1495989522498101,0.2591174577195197
1687692926074214100,5.535214111328125,-0.44388592302799224,-0.01841346243843436,0.2472958678267896
1687692926084178200,5.54517822265625,-0.7470096226692199,0.19927074565254152,0.2578670923322439
1687692926094142200,5.55514208984375,-0.5341705895870924,0.17818397235162556,0.23432817663885652
1687692926104105200,5.565105224609375,-0.10260872608125209,0.02626527191735804,0.3381562153819948
1687692926114069200,5.5750693359375,0.15608371115922928,-0.13547595354691147,0.4726829784452915
1687692926124033300,5.585033203125,0.025574001717567442,-0.1848662996597588,0.5241457469180226
1687692926133996300,5.594996337890625,-0.37603696016073224,-0.0377091145388782,0.4910171651024371
1687692926143960300,5.604960205078125,-0.595414455100894,0.17590455617755651,0.34494646004401147
1687692926153924400,5.61492431640625,-0.5079349090903997,0.3349763432368636,0.29959596390649673
1687692926163887400,5.624887451171875,-0.18660978232622147,0.2606782042302191,0.3757175189480185
1687692926173851100,5.63485107421875,0.12624503773450851,0.05911781327053904,0.38406931383833287
1687692926183815200,5.644815185546875,0.160722476875782,-0.049387058177217835,0.5100274243902415
1687692926193778200,5.654778076171875,-0.0752677146911621,-0.03179053814485669,0.47784905597157773
1687692926203742200,5.6647421875,-0.3075479458242655,0.060432768326625225,0.33502076690047977
1687692926213706200,5.674706298828125,-0.30039456693828104,0.18496530305482445,0.24302425492219626
1687692926223669200,5.684669189453125,0.02448445291519165,0.2125746830575168,0.22472660088315605
1687692926233633300,5.69463330078125,0.3964432038515806,0.1598178561862558,0.297248377867043
1687692926243597300,5.704597412109375,0.5581359870642423,0.10158413227386771,0.3806101863604039
1687692926253560300,5.714560302734375,0.459334252050519,0.08755348802953958,0.3912592253424227
1687692926263524400,5.7245244140625,0.24694530082345006,0.09719086575098335,0.23360921471454202
1687692926273488400,5.73448828125,0.14777005632221699,0.14781433385536075,0.1830677988704294
1687692926283451400,5.744451416015625,0.2553781981259584,0.22514438790380953,0.2161668623305857
1687692926293415400,5.75441552734375,0.45158407631516456,0.20940438245832918,0.3684385409209877
1687692926303379200,5.764379150390625,0.5391717588752508,0.12889365254715085,0.4125773962464183
1687692926313342200,5.77434228515625,0.4984183082044124,0.02574322080463171,0.35800548277720806
1687692926323306200,5.78430615234375,0.26628888371884823,0.026107597137615082,0.3395690778546035
1687692926333270300,5.794270263671875,-0.01404664553105831,0.07381839266568421,0.30104813547618686
1687692926343233000,5.80423291015625,-0.02596621590554714,0.1697046055588871,0.1653319434326142
1687692926353197000,5.814197021484375,0.22539105614125726,0.25272446874678134,0.22866174837499856
1687692926363161300,5.824161376953125,0.46384033129811286,0.2320177808046341,0.2225396122328937
1687692926373124000,5.8341240234375,0.497544447979331,0.09557780453115701,0.18301840677075087
1687692926383088000,5.844088134765625,0.323225991949439,0.04093209517337382,0.15048662180453537
1687692926393052200,5.85405224609375,0.03440846555829048,0.13893179308921097,0.16342252961471676
1687692926403015200,5.86401513671875,-0.10740355914235114,0.2371277442295104,0.1278874711792916
1687692926412979200,5.873979248046875,-0.08059913884699345,0.24457550295218825,0.1933157097056508
1687692926422943200,5.883943115234375,0.023742110115289688,0.10889467448294163,0.16729695989526808
1687692926432906200,5.89390625,0.036706221106648444,0.04433014011383057,0.14058138692714273
1687692926442870000,5.9038701171875,-0.03631342239677906,0.04493628931343555,0.13236783146373926
1687692926452834000,5.913833984375,-0.175170688945055,0.0774381175328046,0.1825702976770699
1687692926462797000,5.923797119140625,-0.2482429394185543,0.08653510476723313,0.2527215461373329
1687692926472761000,5.933760986328125,-0.18855156404376028,0.07196940379813313,0.20711006097607312
1687692926482725000,5.94372509765625,-0.10211363604068756,0.06318338220901787,0.2311903170045465
1687692926492688100,5.953688232421875,-0.10166589227318763,0.07670731904022395,0.2214014750484377
1687692926502652200,5.963652099609375,-0.12839841637611388,0.10725370234288274,0.2699538359671831
1687692926512616200,5.9736162109375,-0.1357341660916805,0.10360891609974204,0.2612180832605809
1687692926522579200,5.9835791015625,-0.0532516977161169,0.056052580481022594,0.2403661416288465
1687692926532543200,5.993543212890625,0.03474631921052933,-0.026057255189865826,0.15023914984948933
1687692926542507300,6.00350732421875,-0.044427755269408224,-0.03129997814893722,0.15132226891107856
1687692926552470300,6.01347021484375,-0.23378829760849473,0.05405424627065658,0.13930654468573628
1687692926562434300,6.023434326171875,-0.3304974442571401,0.20497633688300848,0.06456986813135444
1687692926572398000,6.033398193359375,-0.21419044769108295,0.2204840679425746,0.1194967325180769
1687692926582361300,6.043361328125,0.0958551601678133,0.07105886482447385,0.08803345356620848
1687692926592325000,6.0533251953125,0.2845791581690311,-0.09620302375741302,0.09139379684478044
1687692926602289200,6.0632890625,0.1887123075634241,-0.13026362572610378,0.013657280887290835
1687692926612252200,6.073252197265625,-0.11601181301176547,0.004109846471622586,-0.037191374275088306
1687692926622216200,6.08321630859375,-0.39405426288843154,0.20560477097965776,-0.028843013450875876
1687692926632180200,6.09318017578125,-0.37252398360371586,0.24375454195812343,-0.03571611409075558
1687692926642143200,6.103143310546875,-0.0850625479966402,0.09902926015928387,-0.09605397067554294
1687692926652107300,6.113107177734375,0.0921644889563322,-0.06224018307477235,-0.049203883630037304
1687692926662071300,6.1230712890625,-0.016401099702715874,-0.18880999578423796,-0.04203676847964525
1687692926672034300,6.133034423828125,-0.35017712723910804,-0.13360095345526932,-0.0574399431861937
1687692926681998300,6.142998291015625,-0.5667980169475079,-0.011561258456110954,-0.151955598378554
1687692926691962400,6.15296240234375,-0.45750820566713807,0.08997421237044036,-0.117115828730911
1687692926701925400,6.16292529296875,-0.15385376015007496,0.06722652011997997,-0.09690656891688704
1687692926711889200,6.17288916015625,0.09370996483266353,-0.0880862066667527,-0.04837108606770634
1687692926721853200,6.182853271484375,0.04698328497111797,-0.11739698375985026,0.009236980227008461
1687692926731816200,6.192816162109375,-0.1657593019992113,-0.058267918442934746,0.016783084757626056
1687692926741780200,6.2027802734375,-0.28031331741809845,0.02438347675874829,-0.02538987732231617
1687692926751744300,6.212744140625,-0.10449790082871914,0.06756473909839987,-0.021916209862381218
1687692926761707300,6.222707275390625,0.1223714111715555,0.041045565485209226,0.05456095368377864
1687692926771671300,6.23267138671875,0.23178046491742132,-0.013973507229611278,0.12868702405914664
1687692926781635300,6.24263525390625,0.14882745642066,0.003911766616255045,0.1678661380853504
1687692926791598000,6.25259814453125,0.08845102139115334,0.06441796550527215,0.12696093091890215
1687692926801562000,6.26256201171875,0.20731939287781714,0.1260053106945008,0.09873137319125234
1687692926811526100,6.272526123046875,0.46736499829292294,0.10877397071272134,0.040093963848799465
1687692926821489000,6.282489013671875,0.7462257788151502,0.044779637446999546,0.04368417036049068
1687692926831453000,6.292452880859375,0.9468857138037681,0.019103855855390428,0.07251987728774548
1687692926841416000,6.302416015625,0.9229162246733903,0.028972192788496613,0.07917327076233922
1687692926851380000,6.3123798828125,0.7351701317936181,0.1413615775194019,0.02349829142205417
1687692926861343700,6.32234375,0.45239480817615985,0.23361637510769068,-0.0693843557409942
1687692926871307000,6.33230712890625,0.2930798600107431,0.29983554481603203,-0.1362977182585746
1687692926881270800,6.342270751953125,0.2662339386612177,0.24511085193790494,-0.11704137525521219
1687692926891234800,6.35223486328125,0.2857610614299774,0.10763429915830493,-0.023429317839071154
1687692926901197800,6.36219775390625,0.34929683727324007,-0.03355820540450513,0.019872063748911022
1687692926911161900,6.372161865234375,0.4433505009770393,-0.16264482324048876,0.0006841098066419362
1687692926921126000,6.3821259765625,0.4593605555355549,-0.19593400244526563,-0.10233158964030444
1687692926931089000,6.3920888671875,0.42346448176801205,-0.10258351857475936,-0.1415248783223331
1687692926941053000,6.402052978515625,0.37055882101058957,0.058452262033894656,-0.10206643589809536
1687692926951017000,6.412016845703125,0.3401806338816881,0.15681180623807012,-0.0110478290412575
1687692926960980000,6.42197998046875,0.4151379674494266,0.16472550197206437,-0.02761909767910838
1687692926970944000,6.431944091796875,0.532671875461936,0.1045017732862383,-0.01199680032916367
1687692926980908000,6.441907958984375,0.4914344406664371,0.048665758165344596,0.02640460732281208
1687692926990871000,6.45187109375,0.2890928362011909,0.0038898470453917976,0.025241481827571986
1687692927000834800,6.461834716796875,0.04890285485684871,0.09864362184256315,0.009523322887718677
1687692927010798800,6.471798828125,-0.06125906308293342,0.2235145947448909,-0.004378726540878414
1687692927020761900,6.481761962890625,0.0648544572263956,0.2337421203792095,-0.04809950258471071
1687692927030726000,6.491725830078125,0.27235914354324336,0.1655917634125799,-0.051522608901187775
1687692927040690000,6.50168994140625,0.3279062587201595,0.06326170814223588,0.013010580481588839
1687692927050653000,6.51165283203125,0.2397375614017248,-0.02805653924830258,-0.005985431085154414
1687692927060617000,6.521616943359375,0.07712006455957889,-0.007254062781482934,-0.03563062776438892
1687692927070581000,6.5315810546875,-0.07039280213117599,-0.031909707545116545,-0.156162986940518
1687692927080544000,6.5415439453125,-0.2250193002194166,-0.08586458509452641,-0.2668716520428657
1687692927090508000,6.551508056640625,-0.4123685027360916,-0.13652210159897804,-0.25416794555336236
1687692927100472000,6.56147216796875,-0.6765928551405668,-0.11327142826244234,-0.23267310290820895
1687692927110435000,6.57143505859375,-0.9723363814026117,-0.11822028284147382,-0.19965989110060034
1687692927120399000,6.581399169921875,-1.1138304261952638,-0.1670878471892327,-0.24387736462019383
1687692927130363000,6.59136279296875,-0.8856441863775253,-0.18977869468592107,-0.36968978309109807
1687692927140326100,6.601326171875,-0.3608504969447851,-0.2191695512779057,-0.3451812186479568
1687692927150290000,6.6112900390625,0.12148410694301127,-0.25274879947043954,-0.19053762329444288
1687692927160254000,6.62125390625,0.2939040358752012,-0.1800955050613731,-0.013335428521782159
1687692927170217000,6.631217041015625,0.13005553593337535,-0.006066971888765692,0.17053842603452501
1687692927180181000,6.641180908203125,-0.10948153446018695,0.2175803823903203,0.14428228727169334
1687692927190145000,6.65114501953125,-0.2272071656525135,0.40182489688992495,0.19489391880780457
1687692927200108000,6.66110791015625,-0.1574853946506977,0.43310953133925795,0.2619366798587143
1687692927210072000,6.671072021484375,-0.025747604718804357,0.29150457351803777,0.3293658098787069
1687692927220036000,6.6810361328125,0.05059270763993263,0.12499459928199648,0.43225824827216563
1687692927229999000,6.6909990234375,0.01321837801337242,-0.10254815500043332,0.3555261601168662
1687692927239963100,6.700963134765625,-0.2008037273734808,-0.244552195141837,0.23291195316538213
1687692927249927200,6.71092724609375,-0.47073885864019394,-0.2769947674546391,0.07555610317848623
1687692927259890200,6.72089013671875,-0.5948147356420755,-0.21722323951572178,0.006512450633943081
1687692927269854000,6.73085400390625,-0.4644838898986578,-0.07954239633567631,0.020445991179347037
1687692927279818000,6.74081787109375,-0.1684650538265705,-0.044565483239665624,0.048015477563068266
1687692927289780700,6.75078076171875,0.1413163501381874,-0.17163447764292358,-0.03467559206187725
1687692927299745000,6.7607451171875,0.3151858933568001,-0.2126416108138859,-0.14296813593320548
1687692927309709000,6.770708984375,0.3290390621423721,-0.11313128913938998,-0.24472557894736527
1687692927319671800,6.780671875,0.2974164279103279,0.0377395096771419,-0.224560231340304
1687692927329635800,6.7906357421875,0.34314474438428877,0.22982633517496287,-0.14765556309707462
1687692927339600000,6.800599853515625,0.5603443107634782,0.28593079197369514,-0.043046822305023665
1687692927349563000,6.81056298828125,0.6438169592201709,0.2797252883970737,0.07730784221664071
1687692927359527000,6.82052685546875,0.3966951327860355,0.20720000428184865,0.11377075608670711
1687692927369491000,6.830490966796875,0.03594458908438682,0.12873144772276282,0.06159560156092048
1687692927379454000,6.840453857421875,-0.2329927633166313,0.15686390175148843,0.06799238992594182
1687692927389418000,6.85041796875,-0.1133528229355812,0.10032529131919145,-0.027014190588518977
1687692927399381800,6.8603818359375,0.34602994443178176,-0.0914009572379291,-0.05135236690081656
1687692927409345000,6.870344970703125,0.6092606096237898,-0.25796054276935754,-0.011758388463407755
1687692927419308800,6.880308837890625,0.4813923546016216,-0.3324422216493636,-0.04044489617832005
1687692927429272800,6.89027294921875,0.11494506056308745,-0.24301059172302483,-0.11668971227332949
1687692927439235800,6.90023583984375,-0.28926585468053817,0.04498246654272079,-0.17746691012345253
1687692927449199900,6.910199951171875,-0.4516156404972076,0.2284319582071155,-0.16046908663660286
1687692927459164000,6.920163818359375,-0.2867494879454374,0.14931830867752433,-0.20451536830775438
1687692927469127000,6.930126953125,-0.09993687652349471,-0.038968174689263106,-0.13986132902428508
1687692927479091000,6.940091064453125,-0.09103986884057522,-0.20392215165495872,-0.1021780795790255
1687692927489055000,6.950054931640625,-0.1788397328466177,-0.2819168801572174,-0.12089607792198657
1687692927499018000,6.96001806640625,-0.28437808263897896,-0.17280593257509172,-0.04773461479507386
1687692927508982000,6.96998193359375,-0.26079379343390463,-0.03180931591056287,-0.05747567208670079
1687692927518946000,6.979946044921875,-0.029195114824175833,0.018360782403126358,-0.052445861225947736
1687692927528909000,6.989908935546875,0.21730945649445055,0.12649930475652216,0.07307276193015277
1687692927538872800,6.999872802734375,0.3616699966341257,0.16286292297057806,0.2062470144059509
1687692927548836900,7.0098369140625,0.3492132506430149,0.1646617160208523,0.1939036656614393
1687692927558800000,7.0197998046875,0.35932840194404125,0.1466854028906673,0.09423376951105893
1687692927568764000,7.029763916015625,0.39963060171604153,0.08890541409514843,-0.015294380569830537
1687692927578728000,7.03972802734375,0.463972433245182,0.016417831641808153,-0.04162007743753492
1687692927588691000,7.04969091796875,0.473929763635993,-0.03972337697073817,0.04075381599701941
1687692927598655000,7.059655029296875,0.3198024472415447,-0.056958224083855744,0.15121289025247095
1687692927608618000,7.069617919921875,0.08118424525856971,-0.07159158346168697,0.18741788383871316
1687692927618582000,7.07958203125,-0.12460837644338607,-0.11247260603494942,0.08225508936047554
1687692927628546000,7.089546142578125,-0.23417934275269506,-0.1566415642376989,-0.015545651917159557
1687692927638509000,7.099509033203125,-0.2250362513542175,-0.1604808501396328,0.00028035131134092805
1687692927648473000,7.10947314453125,-0.08248013028800487,-0.10662694874666631,-0.0881375715278089
1687692927658437000,7.11943701171875,0.1319751058191061,-0.09620295069217681,-0.03491466151475906
1687692927668400000,7.129400146484375,0.4307844493925571,-0.16645488304793835,-0.11630948078408837
1687692927678364200,7.1393642578125,0.6507575721383094,-0.16739684007316827,-0.08230177804641425
1687692927688328000,7.149327880859375,0.6779232269614934,-0.059920800216495984,-0.06661489102765918
1687692927698291000,7.159291015625,0.5612900671809912,0.09842347628585994,-0.044312531391903755
1687692927708255000,7.1692548828125,0.5177841029316187,0.25101371930614114,0.04843304538801312
1687692927718219000,7.179218994140625,0.5785615199774503,0.26231070080287755,0.19185703532993792
1687692927728182000,7.18918212890625,0.6414350325196981,0.16103410010822117,0.2053592717859894
1687692927738146000,7.19914599609375,0.4686784189790487,0.07752667259909213,0.2314913457777351
1687692927748110000,7.209110107421875,0.12381284215152263,0.02623334240913391,0.16007577647008
1687692927758072800,7.21907275390625,-0.1351817929059267,0.03950476578399539,0.07271496146842837
1687692927768037000,7.229037109375,-0.10834347034096717,0.01605126335173845,0.0005784574750810861
1687692927778001200,7.239001220703125,0.203891756516695,-0.10422098358348011,-0.02482829791679978
1687692927787965000,7.24896484375,0.4918728320837021,-0.2748717839512974,0.006019114159047603
1687692927797928700,7.2589287109375,0.5090303031116724,-0.39662469789832827,-0.007511179347708821
1687692927807892700,7.268892822265625,0.3031336365133524,-0.377381214376539,-0.08642433786913752
1687692927817855500,7.27885546875,0.06303600962758064,-0.14338533843196927,-0.06544730855301022
1687692927827819800,7.28881982421875,-0.01931435680091381,0.08367123976871371,-0.02607902863025665
1687692927837783800,7.29878369140625,0.08148702759742736,0.1475360283706337,-0.030006869598478078
1687692927847746600,7.30874658203125,0.13115502160787582,0.036749914117902516,0.02821991311646998
1687692927857710600,7.318710693359375,0.060435471740365024,-0.09464600357376038,0.014068053645268083
1687692927867675000,7.3286748046875,-0.0729582687050104,-0.09898111016862093,-0.0026958880204707384
1687692927877637600,7.3386376953125,-0.18873042774200438,-0.04053644691929221,0.12616137803904712
1687692927887601700,7.3486015625,-0.17031974178254602,-0.044679465008154506,0.06922310076467693
1687692927897565700,7.358565673828125,-0.009551672199368475,-0.05967690845802426,0.037571971090510484
1687692927907528700,7.36852880859375,0.1277408292502165,-0.09282616773545742,0.14514175364524126
1687692927917492700,7.37849267578125,0.2193903544217348,-0.09958630952015518,0.152143449100852
1687692927927456500,7.38845654296875,0.2398252396851778,-0.007386822315678,0.1962773359902203
1687692927937419800,7.398419677734375,0.2348743392795324,0.030481647503376005,0.1510437442306429
1687692927947383600,7.408383544921875,0.2384960369080305,0.04475282250531017,0.11802936337925493
1687692927957346600,7.4183466796875,0.15240648395121098,-0.032694793508201835,0.07800261954776942
1687692927967309800,7.428309814453125,-0.0037561376631259917,-0.05842332820035517,0.09544628710597752
1687692927977273600,7.438273681640625,-0.19273498720824717,0.07449731484055519,0.1826303573012352
1687692927987237600,7.448237548828125,-0.3319002967923879,0.13393741886802016,0.291800633855164
1687692927997200600,7.45820068359375,-0.28273966778218745,0.07674282874502242,0.3416800055939704
1687692928007164700,7.46816455078125,-0.1828384470939636,-0.03493490058518946,0.24492146684564647
1687692928017128700,7.478128662109375,-0.146126965290308,-0.11873758471384643,0.3302127820968628
1687692928027091700,7.488091796875,-0.1492635097503662,-0.14671930516026913,0.2737118733264506
1687692928037055700,7.4980556640625,-0.2801198406726122,-0.07483202668763697,0.31798268446847794
1687692928047019800,7.508019775390625,-0.35451135705113407,-0.059817047581076616,0.30260398661606014
1687692928056982800,7.517982666015625,-0.4011901061177254,-0.03125007459260523,0.23967238721102474
1687692928066946800,7.52794677734375,-0.47909518357515335,-0.03197846193239093,0.25124613982252775
1687692928076910800,7.537910888671875,-0.5222480966031551,-0.040624563594162465,0.278542873679474
1687692928086873900,7.547873779296875,-0.5031389069855213,-0.03624240298718214,0.3308407778020948
1687692928096837600,7.557837646484375,-0.3827238905787468,-0.06150514679849147,0.32029114407394077
1687692928106801700,7.5678017578125,-0.25358663853406904,-0.11932312951683997,0.3117116779075935
1687692928116764700,7.5777646484375,-0.16748831774890421,-0.10925612820647657,0.3381270258201286
1687692928126728700,7.587728759765625,-0.16869944710433482,-0.04126468812860548,0.33450562045257537
1687692928136692700,7.597692626953125,-0.14671733239889145,0.09931078051440417,0.3914725027669221
1687692928146655700,7.60765576171875,-0.059652796930074685,0.14233349129147826,0.412007158610411
1687692928156619800,7.617619873046875,0.08476444183290004,0.07670395803935826,0.4070541758455336
1687692928166583800,7.627583740234375,0.09765899471938609,-0.0419081736639142,0.4265296049596742
1687692928176546800,7.637546875,-0.11483341688215731,-0.06722673931568861,0.34922377203702926
1687692928186510800,7.6475107421875,-0.6087637660175561,0.04237316082715988,0.34041981293242424
1687692928196475000,7.657474853515625,-1.0383283182263374,0.11434081105962395,0.22419033858198673
1687692928206438000,7.66743798828125,-1.0703338142961263,0.0690771164227277,0.09055467913951724
1687692928216402000,7.67740185546875,-0.6010287878513336,-0.09178374601043761,0.07780589139927178
1687692928226365700,7.68736572265625,-0.06908756475150585,-0.32170630810149015,0.07134619386587292
1687692928236328700,7.69732861328125,0.13046820838749407,-0.4876579908676445,0.23636132643427699
1687692928246292700,7.707292724609375,-0.14357494271993637,-0.5839130370732396,0.3270279415156692
1687692928256256800,7.7172568359375,-0.6492232021778822,-0.46516091237738727,0.3706926034580916
1687692928266219500,7.727219482421875,-0.8963859451442956,-0.09730353234522045,0.3105678781673312
1687692928276183600,7.73718359375,-0.7462526668220758,0.23942330782078206,0.3074825159052387
1687692928286147800,7.74714794921875,-0.2810644280463457,0.3221866389643401,0.39321996748875826
1687692928296110600,7.757110595703125,0.2603425425350666,0.14777597460635006,0.4931193980786949
1687692928306074600,7.76707470703125,0.6086264033734798,-0.014027867765352128,0.6004874840488656
1687692928316038700,7.77703857421875,0.6901970176011324,-0.10640161555819212,0.49645661621000614
1687692928326001700,7.787001708984375,0.5818640686541795,-0.10607421023473143,0.3535953747173771
1687692928335966700,7.796966796875,0.36790684519708156,0.0420978510171175,0.34528409450054165
1687692928345929700,7.8069296875,0.21186463509202003,0.1387828861378133,0.48311958025302737
1687692928355893500,7.8168935546875,0.1538905850291252,0.16596921842284498,0.5555160138241947
1687692928365856800,7.826856689453125,0.24194822318851947,0.15986754054687916,0.6737387808836997
1687692928375820500,7.836820556640625,0.4768979657918215,0.05474149788245558,0.7165541325204074
1687692928385784600,7.84678466796875,0.7330944945633411,-0.09961904274597763,0.6389997681967914
1687692928395748600,7.85674853515625,0.8919593608736991,-0.22262634066827594,0.4684232021089643
1687692928405711600,7.866711669921875,0.9354074574559926,-0.1675766536194831,0.3408320104625076
1687692928415675600,7.876675537109375,0.8552934717774391,-0.00695361853018403,0.37590752509478476
1687692928425639700,7.8866396484375,0.7228150926113128,0.11493651193045079,0.4197257701637223
1687692928435602700,7.896602783203125,0.627600568434596,0.1551382470026612,0.44157936311867085
1687692928445566700,7.906566650390625,0.5001736274391413,0.18796046628281474,0.5224180463425815
1687692928455530800,7.91653076171875,0.22015549357533454,0.15914638666547834,0.5574637868911028
1687692928465493800,7.92649365234375,-0.10096505052745341,0.06854213276319206,0.46803551796562964
1687692928475457800,7.936457763671875,-0.29974925477206704,-0.034684944412112236,0.32780137357357886
1687692928485421600,7.946421630859375,-0.3169669315546751,-0.10264533176459371,0.19861947866957633
1687692928495384600,7.956384521484375,-0.18391572093665598,-0.1726317450519651,0.09036284636184573
1687692928505348600,7.9663486328125,0.03248831115067005,-0.20026026814654468,0.06754106596186757
1687692928515312600,7.976312744140625,0.2694078925222158,-0.1556228887144476,0.16936178347058592
1687692928525275600,7.986275634765625,0.3953746978372335,-0.09708272920139133,0.28647951189763843
1687692928535239700,7.99623974609375,0.3457674941033125,-0.046942076177895066,0.36316914915069937
1687692928545203700,8.00620361328125,0.1809352438211441,0.027863647024706003,0.39424430556781587
1687692928555166700,8.016166748046874,-0.025845219874382017,0.16186499797441065,0.4652442432792857
1687692928565130800,8.026130859375,-0.10989946761131286,0.28468444517441094,0.5311211023559793
1687692928575094800,8.0360947265625,-0.09167816674411296,0.31796902126930654,0.5791081940747798
1687692928585057800,8.046057861328125,-0.01454115104973316,0.1933468354962766,0.7072967670924961
1687692928595021800,8.056021728515624,0.07974222975671291,-0.05412453502789139,0.7005852867551148
1687692928604985600,8.065985595703125,0.10243570760190486,-0.19416377790234982,0.7217617111008614
1687692928614948900,8.075948974609375,-0.005823591586947441,-0.21285985667444765,0.7129827037744224
1687692928624912600,8.08591259765625,-0.09559270983934402,-0.17600896640010177,0.6470424971379339
1687692928634876700,8.095876708984376,-0.08438800973594188,-0.07663038134649396,0.689872169560939
1687692928644839700,8.105839599609375,0.046750060737133024,-0.07991641727983952,0.6345951765622944
1687692928654803700,8.1158037109375,0.16997136673629282,-0.15759966868013142,0.5760165847349912
1687692928664767700,8.125767822265624,0.10275953272879124,-0.1626179352335632,0.5041179811507464
1687692928674730800,8.135730712890625,-0.08022796744704246,-0.10225750149078666,0.4118022836880758
1687692928684694800,8.14569482421875,-0.2316559617549181,-0.0061357993412762876,0.3335438627483323
1687692928694658800,8.155658935546874,-0.19476035555601118,0.007768807370588183,0.22432846841104329
1687692928704621800,8.165621826171876,0.006430909830331802,-0.03655694882906973,0.19305165194198487
1687692928714585900,8.1755859375,0.1956792239665985,-0.09688041156232356,0.21454214720558373
1687692928724550000,8.1855498046875,0.17018296366035937,-0.1513212459977716,0.314539850538224
1687692928734513000,8.195512939453126,-0.15681553256511688,-0.10290734370164573,0.3578376519296318
1687692928744476700,8.2054765625,-0.5438070174604654,-0.07679667782410979,0.2878010062923655
1687692928754440700,8.215440673828125,-0.8055261090457438,-0.044234570784866804,0.22675858163479715
1687692928764403700,8.22540380859375,-0.8683891001939773,-0.02822013231217861,0.17587540314830838
1687692928774367700,8.23536767578125,-0.6481172867625952,-0.1195548193808645,0.08116364086195826
1687692928784331800,8.245331787109375,-0.28347207370996474,-0.23269714137092232,0.08684285554215311
1687692928794293800,8.255293701171874,0.016176058775186537,-0.26903072977289555,0.1955960391951725
1687692928804257500,8.265257568359376,0.3039472909837961,-0.3225445124913007,0.24366916522961107
1687692928814221600,8.2752216796875,0.5368167201817036,-0.29776736023984846,0.21136980077978224
1687692928824184600,8.2851845703125,0.596367225781083,-0.10305215899981558,0.42153738616295156
1687692928834148600,8.295148681640624,0.45114217776656146,0.11692885479144752,0.5156345602149144
1687692928844112600,8.305112548828125,0.2586854229778051,0.3287970700800419,0.5551506145779043
1687692928854075600,8.31507568359375,0.21146073046624658,0.4259438044283539,0.6386793771360069
1687692928864039700,8.325039794921874,0.2324830602288246,0.38667511242255564,0.7764017213702201
1687692928874003700,8.335003662109376,0.19002222111821174,0.23468027801215646,0.6738618227414787
1687692928883966700,8.344966796875,0.17512801884710788,0.002647811095044017,0.5810746718421578
1687692928893930800,8.3549306640625,0.2490618545860052,-0.06806267868317663,0.5622647939646617
1687692928903894800,8.364894775390624,0.43520577296614643,-0.07705584021694958,0.5491647085687146
1687692928913857800,8.37485791015625,0.7603805608958005,-0.13995046861246227,0.5059808524131775
1687692928923821600,8.384821533203125,0.9739701200842856,-0.13376761525906622,0.5369394332459196
1687692928933785600,8.39478564453125,0.8940706539392471,-0.0778715405140072,0.6222844149131328
1687692928943748600,8.40474853515625,0.684807725778222,-0.01151573881395161,0.6190800659138709
1687692928953712600,8.414712646484375,0.43882630155086516,0.1001757998459041,0.5780270477745681
1687692928963676700,8.4246767578125,0.24116028768122194,0.2500953623522073,0.5835193615805357
1687692928973639700,8.4346396484375,0.20203765308260915,0.2653621973279863,0.5269252946339548
1687692928983603700,8.444603759765625,0.2526397130727768,0.16788813072144984,0.44446248080693185
1687692928993567700,8.454567626953125,0.18035189097523688,0.012537336946651339,0.41872755290661007
1687692929003530800,8.46453076171875,0.015808979028463364,-0.05639459885172546,0.41574839096534993
1687692929013494800,8.474494873046876,-0.18184300631582737,-0.030484350917115807,0.35753592903669923
1687692929023458800,8.484458740234375,-0.16551321828365326,-0.027303382793441414,0.28439927155748007
1687692929033421800,8.494421875,0.06551087530851364,-0.04506334975920617,0.25500425024703144
1687692929043385900,8.5043857421875,0.29808161382079124,-0.08818046082146465,0.22048180292025207
1687692929053349600,8.514349609375,0.4549655354470014,-0.1954354783385992,0.2407225173184648
1687692929063313000,8.52431298828125,0.36646892134845255,-0.15110256174579262,0.23413656305689362
1687692929073276700,8.534276611328124,0.1260620823830366,0.041076033688709136,0.3263244328888133
1687692929083240700,8.54424072265625,-0.0039472763210535045,0.13920242672413588,0.24569197629410772
1687692929093203700,8.55420361328125,-0.03875029415488243,0.21817834828346966,0.20257398844901472
1687692929103167700,8.564167724609375,0.007094926697015762,0.18340419121794402,0.22602149953190237
1687692929113131800,8.5741318359375,0.04801087445318698,0.08812054732777178,0.42894970824606715
1687692929123094800,8.5840947265625,-0.0417927305907011,-0.06140979666523635,0.5202927247516811
1687692929133058800,8.594058837890625,-0.24689737002849577,-0.14321078558266162,0.5157422949057072
1687692929143022800,8.60402294921875,-0.5854162081778049,-0.1694033575899899,0.4654840068519115
1687692929152985900,8.61398583984375,-0.8329349249750375,-0.1447626911997795,0.34354927006457
1687692929162950000,8.623949951171875,-0.8584130651026963,-0.13062924416810273,0.3863696266699582
1687692929172913700,8.63391357421875,-0.6669347999572753,-0.09430844218246638,0.29650055517442525
1687692929182877000,8.643876953125,-0.41816053014099597,-0.1071677045598626,0.3060204805286601
1687692929192840700,8.6538408203125,-0.2536070968002081,-0.20989640375897287,0.3074136884527281
1687692929202804700,8.6638046875,-0.2711117738306522,-0.21124109636619687,0.2215878644660115
1687692929212767500,8.673767578125,-0.3624538404881954,-0.08725801221430302,0.23671631388440728
1687692929222731800,8.683731689453126,-0.4300234018921852,0.11912453820481896,0.26954624154698104
1687692929232695800,8.69369580078125,-0.4699515076547861,0.19353636671900748,0.4456432150240987
1687692929242658600,8.703658447265624,-0.39369244383871554,0.031560236520320174,0.5577729259055108
1687692929252622600,8.71362255859375,-0.40060616874992844,-0.12364004286788403,0.5609305862188338
1687692929262587000,8.7235869140625,-0.6781120275318622,-0.08964198474138975,0.613350582351163
1687692929272549600,8.733549560546875,-1.0207704497039318,-0.04195084376186132,0.5443005000658333
1687692929282513700,8.743513671875,-1.0762176116377116,-0.03289740340821445,0.38927079147156324
1687692929292477700,8.753477783203126,-0.5703671076059341,-0.10919117321148514,0.2743763651171699
1687692929302440700,8.763440673828125,0.19390695359706878,-0.22947876384630797,0.27795542918033894
1687692929312404700,8.77340478515625,0.7227250762403011,-0.2672235342204571,0.34327092804722487
1687692929322368500,8.783368408203126,0.8542629596859216,-0.2607638366870582,0.3954232131540775
1687692929332331800,8.793331787109375,0.6159037009000777,-0.12120667824111878,0.43344175896830855
1687692929342295600,8.803295654296875,0.19132921206355094,0.1283532620601356,0.4410775145437568
1687692929352259600,8.813259521484374,0.009102174866199493,0.32694435488544404,0.4102449347108602
1687692929362222600,8.82322265625,0.08385258768498897,0.4146308216448873,0.42395686839483676
1687692929372186600,8.8331865234375,0.30696985367536544,0.2840232778519392,0.43136319912858306
1687692929382150700,8.843150634765625,0.5215279656350612,0.014745441450178622,0.48923302163202315
1687692929392113700,8.85311376953125,0.5830857194036245,-0.1786906066995114,0.46938952639047055
1687692929402077700,8.86307763671875,0.47866555998623367,-0.21597287412844596,0.4524656083900481
1687692929412041700,8.873041748046875,0.3802876033425331,-0.18029972239658235,0.39921833112072197
1687692929422004700,8.883004638671874,0.33516309798061844,-0.039961569640785455,0.39977187335025516
1687692929431968800,8.89296875,0.4382628224492073,0.0670342854835093,0.4105603938682005
1687692929441932800,8.902932861328125,0.7313666478574276,0.09920943903177976,0.3770909627256915
1687692929451895800,8.912895751953124,1.032144661155343,0.0955676484633237,0.4412510079471394
1687692929461859600,8.922859619140626,1.1829524777382612,0.02511639414317906,0.45047216955050823
1687692929471823600,8.93282373046875,1.0687333933621643,-0.013503990021720529,0.3723796432295814
1687692929481786600,8.94278662109375,0.7380453949689865,0.056214127718284726,0.33060905140545216
1687692929491750700,8.952750732421874,0.27388533019721506,0.2603538676466793,0.37116033056769515
1687692929501714700,8.962714599609376,-0.013870119920372962,0.3839322434552014,0.31826979431416835
1687692929511677700,8.972677734375,-0.024537059885263442,0.3734545424520969,0.3556855519296601
1687692929521641700,8.982641845703125,0.06506488510668278,0.16328275581784546,0.36982016800511625
1687692929531605800,8.992605712890626,0.06262625978291034,-0.11656506298035382,0.20022698693145066
1687692929541568800,9.00256884765625,-0.12659925799965857,-0.2803480234052986,0.12422350531164555
1687692929551532800,9.01253271484375,-0.39451837326884265,-0.26871406503915785,-0.009578304477967321
1687692929561496800,9.022496826171874,-0.5234603950023651,-0.19783771717473864,-0.18375424676463006
1687692929571459800,9.0324599609375,-0.4549883318006992,-0.12328801455982029,-0.19602840273045002
1687692929581423900,9.042423828125,-0.33367198264002795,-0.09864654445201158,-0.13975154850687832
1687692929591387600,9.0523876953125,-0.3336456791549921,-0.19461473654024303,-0.07905406482946127
1687692929601351000,9.062350830078126,-0.6634872898519039,-0.2200392467845231,0.11813844977691769
1687692929611314700,9.072314697265625,-1.2469769138813018,-0.11916041323579847,0.16938268012814223
1687692929621278700,9.08227880859375,-1.6531401322364807,-0.027709040984883904,0.09513071835078299
1687692929631241700,9.09224169921875,-1.4673229615926742,-0.05567512547075748,-0.1041196421008557
1687692929641205800,9.102205810546875,-0.7974550307929515,-0.16566439025737345,-0.10209942485224455
1687692929651169800,9.112169677734375,-0.04914601596295833,-0.3882498143933713,0.07205010435152799
1687692929661132800,9.1221328125,0.3083826430827379,-0.44807687191180884,0.2465112933203578
1687692929671096800,9.132096923828126,0.19507950450778005,-0.3773942930538207,0.4986795164238661
1687692929681060900,9.142060791015625,-0.1769523116648197,-0.18059892453886567,0.45545456107296045
1687692929691024000,9.15202392578125,-0.4417997644037008,0.16985263572745024,0.3718037430377677
1687692929700988000,9.16198779296875,-0.29737551137804985,0.4501359963987022,0.33218645679000763
1687692929710951700,9.17195166015625,0.13847674279808997,0.4593585827741772,0.43233255561739203
1687692929720914700,9.181914794921875,0.5071645092397928,0.18254706293195486,0.5261838651495054
1687692929730878700,9.191878662109374,0.6653665277272462,-0.19063947623372077,0.5108068477975204
1687692929740842800,9.2018427734375,0.4398077138036489,-0.39330899747908116,0.3791439132001251
1687692929750805500,9.211805419921875,0.061195934718847274,-0.4215881665021181,0.20321546469032764
1687692929760769500,9.22176953125,-0.11817454400360583,-0.25660905509516596,0.09655001056417822
1687692929770733800,9.23173388671875,0.09906886151731013,-0.030742490396648645,0.1380192448215559
1687692929780696600,9.241696533203125,0.5272971966862678,0.087396982293576,0.21061605980303139
1687692929790660900,9.251660888671875,0.931350291019678,0.06849887814335524,0.26729919327255336
1687692929800625000,9.261625,1.1321002423793076,0.0007637509141117334,0.22830613987036047
1687692929810589000,9.2715888671875,1.0319500153660774,-0.011991685762628912,0.1365832572016865
1687692929820552000,9.281552001953125,0.7517085941404104,0.0760798347916454,0.035531770499795674
1687692929830516000,9.291515869140625,0.5036082780629396,0.2566254217080772,-0.0863587252870202
1687692929840479700,9.301479736328124,0.422848980218172,0.3523131894197315,-0.08826667780019343
1687692929850442800,9.31144287109375,0.4106213668078184,0.2982734100658446,-0.02700849150009453
1687692929860406800,9.32140673828125,0.24564824675023555,0.13149061023779213,0.11468798052947968
1687692929870370800,9.331370849609375,-0.11668109057545661,-0.06463416553921997,0.1662325455341488
1687692929880333600,9.34133349609375,-0.4606710536122322,-0.14728833721987902,0.07072736784778536
1687692929890297600,9.351297607421875,-0.48662148742675776,-0.19966062175296245,-0.05329645017329603
1687692929900261600,9.36126171875,-0.15406594159603118,-0.289822392584756,-0.16615951683055608
1687692929910224600,9.371224609375,0.2507043610960245,-0.3415759606976062,-0.11549041948616504
1687692929920188700,9.381188720703125,0.40162966657876964,-0.3268023891314864,-0.05931359157096594
1687692929930152700,9.391152587890625,0.22754034312963484,-0.15979988213814794,-0.015747019708156586
1687692929940115700,9.40111572265625,0.023116087171435356,0.0790346660092473,0.001955152655765414
1687692929950079700,9.411079833984376,0.026219898405671117,0.2116746654778719,0.05277041700519621
1687692929960043800,9.421043701171875,0.15963175902962684,0.21974705890491603,0.07181410363856702
1687692929970006800,9.4310068359375,0.20677637204229832,0.11662526873499154,0.14269341064505278
1687692929979970800,9.440970703125,0.15163842218816279,0.06960596260242163,0.23768015394788233
1687692929989934600,9.4509345703125,0.06381050113141537,0.025335297590866685,0.2901963039310649
1687692929999897600,9.460897705078125,0.09920739320516586,-0.10497333632074296,0.2582336240896955
1687692930009861600,9.470861572265624,0.24944763903319833,-0.17838782436065376,0.2090101589763537
1687692930019825700,9.48082568359375,0.27933190516531464,-0.17212569522596893,0.2542533588144928
1687692930029788700,9.49078857421875,0.1420487560659647,-0.12400142352618276,0.3058497270716354
1687692930039752700,9.500752685546875,-0.10065057775080204,-0.06516147734895349,0.30268983826860785
1687692930049716700,9.510716796875,-0.21608079148232937,-0.017631006823852657,0.1490758782237768
1687692930059679700,9.5206796875,0.017612229058146477,-0.05398921821042895,0.010852306469157337
1687692930069643800,9.530643798828125,0.3792652745574713,-0.1331361854877323,-0.012868249401450156
1687692930079607800,9.54060791015625,0.6012175884217024,-0.23168504171892998,-0.023784889811091125
1687692930089570800,9.55057080078125,0.46869712367951866,-0.21406433709338307,-0.014412556234002113
1687692930099534800,9.560534912109375,0.11766074926257133,-0.05594583217091858,-0.0015646555008366704
1687692930109498600,9.57049853515625,-0.23052023572325706,0.14042510038688777,0.007377141171880066
1687692930119462000,9.5804619140625,-0.326512174013257,0.19703926027342675,0.0321173589464277
1687692930129425700,9.59042578125,-0.1539911227941513,0.1661130838729441,0.03398421226423234
1687692930139389700,9.6003896484375,0.00044072950482368465,0.06577113367989659,0.1346646006314084
1687692930149352700,9.610352783203124,-0.03866670752465725,-0.12267704305462539,0.2597889272402972
1687692930159316700,9.620316650390626,-0.1600689814031124,-0.23767098426073788,0.021955226698517797
1687692930169280800,9.63028076171875,-0.2483954996317625,-0.18727825617231428,0.01092084166072309
1687692930179243800,9.640243896484375,-0.23473054689466952,-0.13555398721918463,0.07006645625364034
1687692930189207800,9.650207763671874,-0.13620704430043695,-0.15159991680867968,0.07144355329312384
1687692930199171800,9.660171875,-0.04983692083656788,-0.0968516969244927,0.21417773433998225
1687692930209134800,9.670134765625,-0.04540799847841263,-0.039861470267176624,0.3169373036013916
1687692930219099000,9.680098876953124,-0.03156301299929619,-0.011049874867871403,0.24665888509750364
1687692930229063000,9.69006298828125,0.08343056288063526,0.007683174913749098,0.1831442981727421
1687692930239026000,9.70002587890625,0.3299240282833576,0.05278809879235923,0.1466812747048214
1687692930248989700,9.70998974609375,0.5811112044602632,0.09063947134613991,0.2605334985299036
1687692930258953700,9.71995361328125,0.6892004077792168,0.07868161478787661,0.32320038258414713
1687692930268916700,9.729916748046875,0.5999310557425022,-0.013217647361010313,0.403329017842561
1687692930278880800,9.739880859375,0.26623335413932797,-0.014728782576322555,0.38352158029507843
1687692930288844800,9.7498447265625,-0.21885493237078188,0.05243723952807486,0.3589582534573972
1687692930298807800,9.759807861328126,-0.6024199499487877,0.08677958104759455,0.3057297174211591
1687692930308771800,9.769771728515625,-0.6530348694205284,-0.0159071056406945,0.13611231522168962
1687692930318736000,9.77973583984375,-0.3349807271510362,-0.22836473818980155,0.07993453745841979
1687692930328699000,9.789698974609376,0.04490647869706153,-0.49704073624089357,0.018584544689022004
1687692930338663000,9.799662841796875,0.13702654398977757,-0.6070784432791173,-0.12029697951767593
1687692930348627000,9.809626953125,-0.06282908887863159,-0.4648605411913246,-0.16282646341770887
1687692930358589700,9.819589599609374,-0.2443085225790739,-0.1612645478632301,-0.20516192258298396
1687692930368553700,9.8295537109375,-0.240125099414587,0.1797126432236284,-0.04709207910783589
1687692930378517800,9.839517822265625,0.021208207723498344,0.3259220261003822,-0.03398987482003867
1687692930388481800,9.849481689453125,0.3697013273984194,0.288057647934556,0.09707750503700226
1687692930398444500,9.859444580078126,0.44591421398520464,0.18595336424410341,0.23002920080330222
1687692930408408600,9.86940869140625,0.20793430990576742,0.042459158610180014,0.27510446019601076
1687692930418372900,9.879372802734375,-0.2276806283831596,0.051642874279990786,0.2688400660390034
1687692930428335600,9.889335693359374,-0.5348825372487306,0.08818966704122722,0.2871005298728123
1687692930438299600,9.899299560546876,-0.431592258644104,0.04904525900222361,0.2783661654056981
1687692930448263700,9.909263671875,-0.14070552476346493,-0.08775763229951263,0.3835355357551947
1687692930458226700,9.919226806640625,0.05666998172700405,-0.25691381019540127,0.45796183118615297
1687692930468190700,9.929190673828124,0.09784662624597548,-0.33207302301079034,0.49933805339783427
1687692930478154800,9.93915478515625,0.001938274586200714,-0.2498815734710544,0.48987453440595413
1687692930488117800,9.94911767578125,-0.04557692530453205,-0.15403956504575908,0.36079405404981224
1687692930498081800,9.959081787109374,0.01844166561961174,-0.07437354233041406,0.23423099987469612
1687692930508045600,9.969045654296876,0.12106266666054726,0.007058247948437929,0.16144739361684768
1687692930518008800,9.9790087890625,0.21329671372175216,0.10628178857080638,0.23274306287188082
1687692930527972600,9.98897265625,0.24955986723601817,0.16260755997002124,0.34184367172308266
1687692930537936600,9.9989365234375,0.20336510229408739,0.05451894117295742,0.33301417631842195
1687692930547899600,10.008899658203125,0.11236965711712836,-0.10900332248918712,0.23462880355324595
1687692930557863700,10.01886376953125,-0.08045125480890274,-0.1500032952670008,0.16773966216146946
1687692930567827700,10.02882763671875,-0.2676116567552089,-0.08657638662569224,0.06065733433011919
1687692930577790700,10.038790771484376,-0.2931026563644409,0.036389775568619366,0.04357504743020981
1687692930587754800,10.048754638671875,-0.10870645843446254,0.07967537506558,0.050379028356634076
1687692930597718800,10.05871875,0.23052841902971266,-0.025669278785586357,-0.01517714739833027
1687692930607681800,10.068681884765626,0.4885036479115486,-0.14786708695590495,-0.05256265600603074
1687692930617645800,10.078645751953125,0.5243360087931156,-0.1824258477050811,-0.014981003771722316
1687692930627609900,10.08860986328125,0.43823301183283325,-0.04591850528381765,0.0209837878504768
1687692930637572900,10.09857275390625,0.33320027347505093,0.09016995413824916,0.05220145801082253
1687692930647536600,10.10853662109375,0.33247488180994983,0.1388293556280434,0.15714889270532875
1687692930657500700,10.118500732421875,0.39322073467373847,0.10734276886582374,0.2044735384600237
1687692930667463700,10.128463623046875,0.32356852177679535,0.0389337609630078,0.32868155394159254
1687692930677427700,10.138427734375,0.08020984726846217,0.0030264351490885016,0.3703745139522478
1687692930687391700,10.148391845703125,-0.25462767201960085,0.057669660288840525,0.3925857247058302
1687692930697354800,10.158354736328125,-0.4720820899426937,0.0803510823700577,0.3503358979973942
1687692930707318800,10.16831884765625,-0.509323733100295,-0.0013765490502119064,0.21819727217964827
1687692930717282800,10.17828271484375,-0.44462826582789416,-0.047366439069807524,0.14050748144071548
1687692930727245800,10.188245849609375,-0.33304420613050456,-0.11443338471390306,0.06493468285575509
1687692930737209900,10.1982099609375,-0.20749182683527467,-0.13259769469685853,0.03916183409783989
1687692930747174000,10.208173828125,-0.15406243446469306,-0.07764847234785556,0.04856679130289703
1687692930757137000,10.218136962890625,-0.059518356895446774,-0.11523951346501707,-0.021674290865287184
1687692930767101000,10.228100830078125,-0.07873042236566544,-0.14874803450889884,0.013671126749552785
1687692930777064700,10.238064697265624,-0.3295236307889223,-0.1072716033257544,0.05545052293464541
1687692930787027700,10.24802783203125,-0.7085527585029602,-0.045872547250241036,0.04275218674000352
1687692930796991700,10.25799169921875,-0.8957137449711561,0.08171696389578283,0.12694540455620734
1687692930806955800,10.267955810546875,-0.767298961982131,0.15324775708094238,0.16219733520131557
1687692930816919800,10.277919921875,-0.4375894532322883,-0.0067289429288357495,0.24471377891171722
1687692930826882800,10.2878828125,-0.22362170838117598,-0.261437498164922,0.18046031978577373
1687692930836846800,10.297846923828125,-0.20885376283824442,-0.4169688361383974,0.20625622062571344
1687692930846811000,10.307810791015624,-0.3054150254487991,-0.3326006270814687,0.19149755436778068
1687692930856774000,10.31777392578125,-0.30582360624969,-0.13652144401185215,0.19845778530184177
1687692930866738000,10.327738037109375,-0.10225859746932983,-0.02005991447120905,0.16752163549661636
1687692930876702000,10.337701904296875,0.26378829907476903,-0.023154227224737405,0.0938933585755527
1687692930886665000,10.3476650390625,0.6429886917024851,-0.07390015266500413,0.13241905019432307
1687692930896628700,10.357628662109375,0.9217699772477149,-0.06929894247986376,0.13883834265209732
1687692930906592800,10.3675927734375,0.9501800791740417,0.02798931923098862,0.17502598324473947
1687692930916555800,10.3775556640625,0.7767728927701711,0.1521745018262416,0.18353888698089868
1687692930926519800,10.387519775390626,0.6465291407883167,0.21671645903736353,0.11822304105414078
1687692930936483800,10.39748388671875,0.6869546746790409,0.26515958742797374,0.23074555064542218
1687692930946446800,10.40744677734375,0.7173918985188007,0.25306948279216884,0.36889607543013986
1687692930956411000,10.417410888671874,0.57138183760643,0.23823175994865595,0.5766541519861668
1687692930966375000,10.427375,0.3996066363185644,0.12612396863810718,0.6970214567936956
1687692930976338000,10.437337890625,0.28821663788855073,0.009259338189288974,0.6168927119374275
1687692930986302000,10.447302001953124,0.26760814962387086,-0.09123984839208424,0.5146177113225683
1687692930996266000,10.457265869140626,0.28282208536863324,-0.17718546283356845,0.4181366012761369
1687692931006229000,10.46722900390625,0.2966413518846035,-0.15605338908620178,0.3884881897265091
1687692931016193000,10.477193115234375,0.20921850449740886,-0.09310834567770361,0.38293227263242
1687692931026156800,10.48715673828125,0.0548158782929182,-0.047624578549340366,0.3200841502597555
1687692931036120000,10.4971201171875,-0.053878305181860923,-0.04591799382716417,0.22457824192102996
1687692931046083800,10.507083740234375,-0.06098726040422916,0.00472717465236783,0.1991027321418747
1687692931056047900,10.5170478515625,0.05418634821772575,0.02098930427581072,0.13161929638506845
1687692931066011000,10.527010986328126,0.18932722459137438,0.03874211084842682,0.12868874109219758
1687692931075975000,10.536974853515625,0.21600947981178759,0.06403999903835356,0.1942303403325379
1687692931085939000,10.54693896484375,0.0470692096889019,0.09483575399219989,0.1872432944567874
1687692931095901700,10.556901611328126,-0.22371581640541552,0.19578020012304187,0.1293959577797912
1687692931105866000,10.566865966796875,-0.44219022502601146,0.2783912633143365,0.06617649961039423
1687692931115830000,10.576830078125,-0.4144108222186565,0.2994877542916685,-0.01324855395592749
1687692931125792800,10.586792724609374,-0.19027473457455635,0.23321721972227094,-0.06804236654751003
1687692931135756800,10.5967568359375,-0.030562311524152754,-0.0013012918569147585,-0.06470021651275455
1687692931145720800,10.606720947265625,-0.081114687153697,-0.22797449676319956,-0.1387144240114838
1687692931155683800,10.616683837890625,-0.3415121747463941,-0.3015923984207213,-0.22653266392443328
1687692931165648000,10.62664794921875,-0.4496656754732132,-0.29783874497562646,-0.2430326208917424
1687692931175611600,10.636611572265625,-0.37258185127079485,-0.18316197995990513,-0.15180740381320937
1687692931185575700,10.64657568359375,-0.2790940047562122,-0.07952296098284423,0.07317666069604456
1687692931195538700,10.65653857421875,-0.28299568836987016,-0.140469889376685,0.12192989621544256
1687692931205502700,10.666502685546876,-0.41094753002226353,-0.1466711551696062,0.1622676970237866
1687692931215466800,10.676466796875,-0.5855114852458239,-0.002562324768677354,0.19653437949120997
1687692931225429800,10.6864296875,-0.5364122310340405,0.07949293117076157,0.11538471235567703
1687692931235393800,10.696393798828124,-0.20671324367821214,0.10901640116646885,0.160486457896512
1687692931245357800,10.70635791015625,0.21551965046823024,0.04977620362527668,0.23817381921634076
1687692931255320800,10.71632080078125,0.377094944781065,-0.06818491682335734,0.23389219637438655
1687692931265284900,10.726284912109374,0.1863163523375988,-0.09375942999757826,0.3636279257688671
1687692931275248600,10.73624853515625,-0.2575701552122831,0.08832162285782397,0.4077362398255616
1687692931285212000,10.7462119140625,-0.5340986933946609,0.31758579410538074,0.4124557426281273
1687692931295175700,10.75617578125,-0.38303018004894257,0.37525450454615056,0.4435422241568565
1687692931305139700,10.7661396484375,0.004913491004705429,0.09372267818376422,0.41946569445542986
1687692931315102700,10.776102783203125,0.24325462961196898,-0.19087649985998867,0.4303511725418269
1687692931325066800,10.786066650390625,0.12450082441568373,-0.3215718680668622,0.40787897276449947
1687692931335030800,10.79603076171875,-0.22169453971087932,-0.15231909792870282,0.3459726612865925
1687692931344993800,10.805993896484376,-0.42812429027259347,0.079869801659137,0.23083620633725074
1687692931354957800,10.815957763671875,-0.231712075856328,0.21143355019837617,0.058541657350398596
1687692931364921900,10.825921875,0.23425065442323684,0.13959873256534336,0.09102856199527158
1687692931374884900,10.835884765625,0.5557277568787335,0.05791749757006764,0.12599575741486624
1687692931384849000,10.845848876953125,0.5752238999873399,0.03546929972283542,0.19946966575812547
1687692931394813000,10.85581298828125,0.35260055499374865,0.10025734064951539,0.14878966342722996
1687692931404776000,10.86577587890625,0.2259001747071743,0.15829269244559108,0.07575330625101924
1687692931414740000,10.875739990234376,0.27098493258059025,0.17655352160558105,0.024373156294133513
1687692931424703700,10.885703857421875,0.40327743378579617,0.1769131486982107,0.05903168762335553
1687692931434666800,10.895666748046875,0.44378363169729707,0.13114384262673556,0.18103262151470406
1687692931444630800,10.905630859375,0.3061994538247585,0.14755970150716602,0.2841127827662974
1687692931454594800,10.9155947265625,0.14575228675901888,0.12682656394951045,0.31500001539587974
1687692931464557800,10.925557861328125,0.12166472420692444,0.08684482830353081,0.26108406335106116
1687692931474521900,10.93552197265625,0.250964473336935,0.06829020382873714,0.3029610929580405
1687692931484486000,10.94548583984375,0.3964420348078012,0.030784137581288812,0.3091337171783671
1687692931494450000,10.955449951171875,0.4928852239966392,0.03384513258710503,0.34579116723984477
1687692931504413000,10.965412841796875,0.4523825332164764,0.11165281408466399,0.4290411128565669
1687692931514377000,10.975376953125,0.4373112208127975,0.1822260142840445,0.46561742397323247
1687692931524341000,10.985341064453126,0.4335398855805397,0.22250943629033862,0.46363910963758825
1687692931534304000,10.995303955078125,0.4222843320727348,0.2421955490130931,0.44167190024033187
1687692931544267800,11.005267822265624,0.31909751384258267,0.24341705363206564,0.4655450163241476
1687692931554231800,11.015231689453126,0.16353227359950542,0.2244615932714194,0.45185021643806245
1687692931564194800,11.02519482421875,0.002232289096713066,0.20677936771698294,0.3591422317221761
1687692931574158800,11.035158935546875,-0.08378127601444721,0.21327464802041649,0.2776267817478627
1687692931584123000,11.045122802734374,-0.15193594383001327,0.2144128582701087,0.19474682022100315
1687692931594086000,11.0550859375,-0.10216273587942123,0.12083674895018338,0.10392649414893239
1687692931604050000,11.0650498046875,0.10899988842308521,0.0035997049923986195,0.01560697191664949
1687692931614014000,11.075013916015624,0.3294534881621599,-0.060012935479357835,0.048080505623295904
1687692931623977000,11.08497705078125,0.38290743045210834,-0.10993497731611132,0.09665096845431252
1687692931633941000,11.09494091796875,0.10273498280942439,-0.04163702857233584,0.005482267335988581
1687692931643905000,11.104905029296875,-0.411938879147172,0.13886355015859006,0.006822028039768338
1687692931653867800,11.11486767578125,-0.7714788780152797,0.2712750015683472,-0.04279388872357085
1687692931663832000,11.12483203125,-0.7074941893607377,0.33506036825850605,-0.10038695837855338
1687692931673795800,11.1347958984375,-0.34503216556608673,0.21997071159295736,-0.04242392290001735
1687692931683758800,11.1447587890625,-0.12177286075651644,-0.034083179126679894,-0.011332144141662866
1687692931693722600,11.15472265625,-0.2831236986637115,-0.20171558152139185,0.035156032522581517
1687692931703687000,11.16468701171875,-0.6565390781491994,-0.21944822208881376,0.02986715060053393
1687692931713649700,11.174649658203125,-0.8212368883967399,-0.06710968880727887,-0.0408570571757853
1687692931723613700,11.18461376953125,-0.5177455244868994,0.08531856858432292,0.06580308145442977
1687692931733577700,11.19457763671875,0.12137830848097801,0.07563187182843685,0.13651780901635066
1687692931743540700,11.204540771484375,0.6567565202921628,0.005868526707217097,0.19956622146777808
1687692931753504800,11.2145048828125,0.799444158783555,-0.026340309914946555,0.3658924731673673
1687692931763468800,11.22446875,0.5620031838864088,0.02374174478910863,0.4451994167793542
1687692931773431800,11.234431884765625,0.24503391424417495,0.2362372251305729,0.3488920558646321
1687692931783395800,11.244395751953125,0.07943418672084808,0.48404257684946056,0.3499144577149302
1687692931793359600,11.254359619140626,0.2051607535392046,0.48924818266853687,0.3808245597634464
1687692931803323600,11.26432373046875,0.3278898921072483,0.33040691642947495,0.42485951632298524
1687692931813286700,11.27428662109375,0.24611995591521263,0.16861403384320436,0.47285051703192293
1687692931823250400,11.28425048828125,0.0013847323566675185,0.0740788702327758,0.4256515434835106
1687692931833214500,11.29421435546875,-0.15691256319880484,0.019314137605205176,0.3090665702262893
1687692931843177500,11.304177490234375,-0.06565466769337654,-0.08915252072401345,0.17556087557272984
1687692931853141500,11.3141416015625,0.1871779376029968,-0.164659524063766,-0.005496825584303588
1687692931863105500,11.32410546875,0.3566495381236076,-0.1623879258699715,-0.056293001640774304
1687692931873068500,11.334068603515625,0.3180962278455496,-0.0714352238561958,-0.06624965617815032
1687692931883032600,11.344032470703125,0.10985095229446887,0.10955299226120113,-0.04825765228848904
1687692931892996600,11.35399658203125,-0.0692377868771553,0.22663491872251032,-0.08895663282573223
1687692931902959600,11.363959716796876,-0.0649240153312683,0.34914953775703905,-0.16089467337122185
1687692931912923600,11.373923583984375,0.0856418091893196,0.3590758154224604,-0.1808653751890175
1687692931922887700,11.3838876953125,0.25206395901143547,0.2267326800085604,-0.1246359403037466
1687692931932850700,11.3938505859375,0.26065233913660046,0.10770663374215364,-0.12180005929069593
1687692931942814500,11.403814453125,0.07909925567805767,0.061968015069887035,-0.05315231072856113
1687692931952778500,11.413778564453125,-0.24499592032134532,0.08883987457826734,-0.07238662456320598
1687692931962741500,11.423741455078124,-0.5584481217533349,0.12123670805320143,-0.09505666673388331
1687692931972705500,11.43370556640625,-0.6298392872720956,0.10248612261489033,-0.12095624714400618
1687692931982668500,11.44366845703125,-0.4453384599238634,0.018837167743220924,-0.18092928900439292
1687692931992632600,11.453632568359374,-0.18963000693023205,-0.13706008093319832,-0.12294258038932457
1687692932002596600,11.4635966796875,-0.05957213290929794,-0.2964488980524242,-0.09131530651478097
1687692932012559600,11.4735595703125,-0.2892038953602314,-0.2918698996990919,-0.21768493874333797
1687692932022523600,11.483523681640625,-0.6123422090262174,-0.08786255397871136,-0.278510304850433
1687692932032487700,11.49348779296875,-0.6991752738267183,0.07901888391822576,-0.21257702114507554
1687692932042450700,11.50345068359375,-0.4471522313475609,0.11348697070926426,-0.15681856477241962
1687692932052414700,11.513414794921875,-0.06996843923926353,-0.01540127501040697,-0.01378322708820924
1687692932062378800,11.523378662109375,0.047692310023307795,-0.10191314503252506,0.09157578408187254
1687692932072341800,11.533341796875,-0.25114742868840695,-0.03441679499521851,0.15388068468961863
1687692932082305800,11.543305908203125,-0.623883593738079,0.028888825353980064,0.03892950491299853
1687692932092269600,11.55326953125,-0.7307108142971992,0.16071984652727841,-0.028094094779714942
1687692932102232600,11.563232666015624,-0.3878682677298784,0.21674648884944617,-0.03304552490832284
1687692932112196600,11.573196533203125,0.21503391277790068,0.0633368192050606,0.10054087029863149
1687692932122160600,11.58316064453125,0.5566524705082178,-0.06294789295271039,0.14725881886444986
1687692932132123600,11.59312353515625,0.4602478597640991,-0.1336142513282597,0.14374419833961874
1687692932142087700,11.603087646484376,0.13806523938775062,-0.06603270722553134,0.04182436783798039
1687692932152051700,11.6130517578125,-0.12017711599767207,0.07639533048160374,-0.06139631612915546
1687692932162015700,11.623015625,0.015852818170189856,0.11554412243477999,-0.09519846809105947
1687692932171978800,11.632978759765624,0.3687450495868921,0.06530212792865932,-0.09909386809440329
1687692932181942800,11.64294287109375,0.509469279050827,0.022171572862938044,-0.0036613903180696067
1687692932191906800,11.65290673828125,0.34642215861976144,-0.02161342752352357,-0.009493420939799397
1687692932201869800,11.662869873046875,0.017077976050972936,0.046872956464439626,-0.06444874423602595
1687692932211833600,11.67283349609375,-0.08945639904141425,0.17810425817891953,-0.09240701074162498
1687692932221797600,11.682797607421875,0.16540215912461279,0.1613886126343161,-0.18902729179672895
1687692932231760600,11.6927607421875,0.533406619477272,0.05795578375384211,-0.2300837440021336
1687692932241724700,11.702724609375,0.7436983061641455,-0.0023138299003243445,-0.2109794497553259
1687692932251688700,11.712688720703126,0.6223135679423809,0.00043619946017861366,-0.18459475270938128
1687692932261651500,11.7226513671875,0.2886678887873888,0.10215637920387088,-0.18067575263474137
1687692932271615700,11.73261572265625,0.1338444068223238,0.14674429347105322,-0.22071166615337132
1687692932281579800,11.742579833984376,0.19008651852607725,0.16366021082811055,-0.2707687508129515
1687692932291542500,11.75254248046875,0.35163258674442766,0.14428075290173292,-0.2544650470701046
1687692932301506600,11.762506591796875,0.5041173966288567,0.08616912099905312,-0.16001673975922168
1687692932311470800,11.772470947265624,0.521069700473547,0.09106675684750079,-0.21471401490746064
1687692932321433600,11.78243359375,0.5052724118828773,0.174719803372398,-0.15413542663566768
1687692932331397600,11.792397705078125,0.5088420870631933,0.1799213175382465,-0.16101521274466066
1687692932341362700,11.80236279296875,0.418475587439537,0.14280724628306923,-0.1997013921547681
1687692932351325700,11.81232568359375,0.3211094381868839,-0.016813333765417337,-0.16374098444674162
1687692932361289700,11.822289794921875,0.13468319573402404,-0.13866481271609662,-0.09418547338992357
1687692932371253800,11.832253662109375,-0.23229367513656615,-0.11995507074482738,-0.04847732292115688
1687692932381216500,11.842216552734374,-0.5860661965191364,-0.06778919550403953,-0.02617514594849199
1687692932391180500,11.8521806640625,-0.6776859110742807,-0.004133446542918682,-0.2159089420467615
1687692932401144800,11.862144775390625,-0.43199850135743617,0.01945376527160406,-0.24066490537971258
1687692932411107600,11.872107666015625,0.15337211411297322,-0.12493950809389352,-0.278091659313254
1687692932421071600,11.882071533203124,0.832029500567913,-0.2711265330083668,-0.23079178267363457
1687692932431035400,11.892035400390625,1.296949443796277,-0.2391056201737374,-0.03493413340020925
1687692932440998700,11.90199853515625,1.3587684788495302,-0.05725406522527337,0.04706073412150144
1687692932450962400,11.91196240234375,0.9323626829326153,0.24031024672314524,0.13535053706895558
1687692932460926500,11.921926513671876,0.30533143881857394,0.5398728928819299,0.20634718684479594
1687692932470890500,11.931890380859375,-0.10764905833601951,0.7873576343443244,0.22045427559250966
1687692932480853500,11.941853515625,-0.08110533480346202,0.802734140239656,0.28487264295658093
1687692932490817500,11.951817626953124,0.2981236993968487,0.4971216194573789,0.29861066092988475
1687692932500781600,11.961781494140626,0.4367074097007513,0.03453866780921817,0.28059699319768694
1687692932510744600,11.97174462890625,0.07056582061052322,-0.326787703019008,0.19955971866175531
1687692932520708600,11.98170849609375,-0.5771089830815792,-0.46164420949332413,-0.09685155079402029
1687692932530672600,11.991672607421876,-0.9818500596791505,-0.39363450310640036,-0.33052309015505016
1687692932540635600,12.0016357421875,-0.7060176870673894,-0.20858334839902817,-0.3488665560971945
1687692932550599700,12.011599609375,0.007323474755883216,-0.11721731634400784,-0.4501957637619227
1687692932560563500,12.0215634765625,0.5711497824162245,-0.13932583390809594,-0.3108871732495725
1687692932570526700,12.031526611328125,0.7465478503763675,-0.1753393965754658,-0.18433876865431664
1687692932580490500,12.041490478515625,0.4579173709899187,-0.09657909052819014,-0.16800576575174928
1687692932590454500,12.05145458984375,-0.0003454524368047714,0.11833061134815215,-0.16648326889220624
1687692932600417500,12.06141748046875,-0.23183482545316217,0.360331295376271,-0.2942394053094089
1687692932610381600,12.071381591796875,-0.15935411113202572,0.569056317268312,-0.20232034248150885
1687692932620345600,12.081345703125,0.05419219343662262,0.5621672884069383,-0.058161480660084634
1687692932630308600,12.09130859375,0.20503274324536322,0.38983533001914616,0.015433314116485415
1687692932640272600,12.101272705078125,0.2044756938844919,0.16577523022070526,0.21425540268607438
1687692932650236700,12.111236572265625,0.03619885610640049,0.006585515870153904,0.20961020722873508
1687692932660199700,12.12119970703125,-0.23338322393894195,-0.03531491287872195,0.11492865741755813
1687692932670163700,12.131163818359376,-0.5029413385868072,0.02287869821898639,0.07197678338699043
1687692932680127700,12.141127685546875,-0.6063467680037021,0.11680647052079439,-0.02484871965032071
1687692932690090800,12.1510908203125,-0.5429781654208898,0.11750555870085953,-0.0874604394512251
1687692932700054500,12.161054443359374,-0.43908641379177565,0.035043986982852215,-0.0427533557837829
1687692932710018600,12.1710185546875,-0.5953700314372777,-0.12040054949000477,-0.15875428207535297
1687692932719982600,12.180982666015625,-1.1519903532415627,-0.21658486854694783,-0.3231868655154481
1687692932729945600,12.190945556640624,-1.8147312086403369,-0.22835239016488193,-0.4665533165838569
1687692932739909600,12.20090966796875,-2.231509344512224,-0.17792963226437566,-0.5580288368953391
1687692932749873700,12.210873779296875,-1.8873790962219237,-0.060602425805106754,-0.7474438493680209
1687692932759836700,12.220836669921875,-0.975581062412262,-0.012603899376839398,-0.5143074763296172
1687692932769800700,12.23080078125,-0.11771744788587092,-0.15667086339741945,-0.12734828626867384
1687692932779764700,12.2407646484375,0.1364589732348919,-0.27518888707645234,-0.03461355967633426
1687692932789727700,12.250727783203125,-0.05108604411482811,-0.37423911695852874,0.20307762712221591
1687692932799692800,12.26069287109375,-0.15241291369199753,-0.4140845859389752,0.19847572281733153
1687692932809656800,12.27065673828125,0.2191495314031839,-0.42429084958955643,0.007755984421633184
1687692932819619800,12.280619873046875,0.9522107082188129,-0.3816628372184932,-0.09502576013896613
