time,seconds_elapsed,z,y,x
1687693625322180900,0.023180908203125,-0.07081365789175033,0.43615328294932837,0.7732789131745695
1687693625332144000,0.03314404296875,0.40721068158149715,0.2081676802702248,0.6293658245414495
1687693625342108000,0.04310791015625,0.5840279686897992,-0.06464607517272233,0.43405075771212576
1687693625352072000,0.053072021484375,0.5963035128951072,-0.13763810001686214,0.3762405929740518
1687693625362034700,0.06303466796875,0.5483394001930951,-0.06893281258121133,0.3722906132392585
1687693625371999000,0.0729990234375,0.5499737233966588,0.029057898310571907,0.4386465610697865
1687693625381963000,0.082962890625,0.637979339107871,0.14332242926359176,0.5690102861694991
1687693625391925800,0.09292578125,0.6438274806141853,0.26854323851689693,0.7395932089328765
1687693625401889800,0.102889892578125,0.6936164706557989,0.38328152446150776,0.9230045605439692
1687693625411852800,0.112852783203125,0.6853788036644458,0.43876331931725143,1.1187998851709067
1687693625421816800,0.12281689453125,0.5768699136286973,0.3654588675230741,1.070964440349862
1687693625431780900,0.13278076171875,0.4154395807445049,0.3163736418366432,0.8983863251812756
1687693625441744000,0.142743896484375,0.26152035414278507,0.3943311801336705,0.7377203277330845
1687693625451708000,0.1527080078125,0.3764057934731245,0.6212374631434678,0.6952185720901936
1687693625461672000,0.162671875,0.8253232809275388,0.8589971486009657,0.8174789971679448
1687693625471635000,0.172635009765625,1.4453876086384057,0.905446472825855,0.9228291309118271
1687693625481599000,0.182598876953125,1.9071096326082944,0.7899706663869321,0.8067964943077415
1687693625491562800,0.192562744140625,1.8939269104301928,0.5217917311377823,0.646374680878967
1687693625501525000,0.20252490234375,1.457007903805375,0.2653945652276277,0.5808751306820661
1687693625511489000,0.212489013671875,0.8970797726273536,0.2159028045669198,0.6071799308922141
1687693625521452000,0.2224521484375,0.5630120686680078,0.2871557306587696,0.7510818405441939
1687693625531416000,0.232416015625,0.68031684409976,0.37530090097114444,0.8881751661598681
1687693625541379800,0.2423798828125,1.0369622905701399,0.3736554718516767,0.9891017843730747
1687693625551342800,0.2523427734375,1.2856915522009134,0.2646102829821408,1.0203364422008394
1687693625561307000,0.262306884765625,1.1541109986573457,0.060226212903857226,1.0059231553144752
1687693625571271000,0.27227099609375,0.796784584185481,-0.12653335315659642,0.9887130042511969
1687693625581234000,0.28223388671875,0.4896095633268356,-0.1088965741790831,0.9183256820127368
1687693625591198000,0.292197998046875,0.45882805609405036,0.056914750268310305,0.8026731307674199
1687693625601161000,0.302160888671875,0.8155962521612644,0.2849753178797662,0.8398835750691592
1687693625611125000,0.312125,1.2830015824645757,0.34514234794229265,0.888316182065755
1687693625621089000,0.322089111328125,1.437345171958208,0.24868805283755063,0.8536376673944294
1687693625631052000,0.332052001953125,1.15835521209836,0.15235358472019433,0.7423875888917595
1687693625641016000,0.34201611328125,0.7296925771653652,0.17970277941673993,0.6577504997655749
1687693625650980000,0.35197998046875,0.6392530123054981,0.34061434912383554,0.6738664258513599
1687693625660942800,0.36194287109375,0.9459417109519243,0.45771512641608714,0.6735803754515945
1687693625670907100,0.3719072265625,1.3899293407887219,0.41543432004749775,0.6080811540482566
1687693625680871000,0.381870849609375,1.4174895478874445,0.2500172556146979,0.4731448238033801
1687693625690834000,0.391833984375,0.8824959514796733,0.009353227017819881,0.39913660765402015
1687693625700797700,0.401797607421875,-0.13983809427917002,-0.20195099771246314,0.41984545102063564
1687693625710760700,0.4117607421875,-1.028985320341587,-0.13487243469581006,0.4639832834327593
1687693625720724700,0.421724853515625,-1.30850661059916,0.0999975206695497,0.47680067942980675
1687693625730688800,0.431688720703125,-0.9699293202608823,0.20800459866300225,0.48119204625654965
1687693625740651800,0.44165185546875,-0.3037561523258686,0.18963892088904977,0.5545074943687767
1687693625750615800,0.45161572265625,0.20800386801064014,0.09761559396907686,0.615639716201648
1687693625760579800,0.461579833984375,0.19861761550605295,-0.04484393485486507,0.5532379128243774
1687693625770542800,0.47154296875,-0.1239361762702465,-0.14766908016577363,0.4225062677277252
1687693625780507000,0.4815068359375,-0.36103637490570545,-0.12542363834902642,0.3346648296022787
1687693625790471000,0.491470947265625,-0.22558277932107448,0.020691490373015403,0.38479178289398547
1687693625800434000,0.501433837890625,0.028513562300801275,0.11969006313309073,0.6063791724359616
1687693625810398000,0.51139794921875,-0.0346691623210907,0.03512055935040116,0.7301001350529491
1687693625820361000,0.52136083984375,-0.5691290902435779,-0.12931991513520477,0.7692205776944756
1687693625830325000,0.531324951171875,-1.4643115048170088,-0.3225710351720452,0.7596245548967272
1687693625840288800,0.541288818359375,-2.423210312497616,-0.4397606597915292,0.7026151120822877
1687693625850252000,0.551251953125,-3.01200330363214,-0.3732242408275604,0.6373608418833464
1687693625860215800,0.5612158203125,-2.9894892740070818,-0.23943536358475684,0.5692341580532491
1687693625870179800,0.571179931640625,-2.4654770903408525,-0.15845102481245993,0.5545262721344828
1687693625880142800,0.581142822265625,-1.5653578038871288,-0.07304609311893583,0.6527202505134045
1687693625890107000,0.59110693359375,-0.7850298489838838,-0.0635737697660923,0.7012620169728994
1687693625900070000,0.60106982421875,-0.4339040427178144,-0.2249200776286423,0.6108504360985011
1687693625910034000,0.611033935546875,-0.6322820042490959,-0.46602834286168215,0.4106273946898058
1687693625919998000,0.620998046875,-1.0522469534635543,-0.5651474732615054,0.25212635672315953
1687693625929961000,0.6309609375,-1.1735580419272185,-0.39327757942751046,0.2829263859933242
1687693625939925000,0.640925048828125,-0.9568582417637109,-0.1687216589361429,0.5456355115292594
1687693625949889000,0.650888916015625,-0.7343506321042775,-0.11432079118490218,0.7939017222255468
1687693625959852000,0.66085205078125,-0.8997142127841711,-0.2924760488986969,0.7389382521554827
1687693625969816000,0.670816162109375,-1.3105384086877108,-0.5008990191042423,0.5182156262166798
1687693625979779800,0.68077978515625,-1.5265958192944526,-0.39554859309941526,0.543283906901814
1687693625989743000,0.6907431640625,-1.4591232885241507,-0.24138971252292393,0.5683526625109836
1687693625999707000,0.700706787109375,-0.8932628446877002,-0.24109321379438042,0.5511428402412683
1687693626009670100,0.710670166015625,-0.2671259190648794,-0.3067489044010639,0.48231224592551586
1687693626019634000,0.720634033203125,0.0034790742874145505,-0.29333602672889825,0.35301914573200044
1687693626029598000,0.730597900390625,-0.07635492540597916,-0.25227365623936054,0.3098372988704592
1687693626039560700,0.740560791015625,-0.21535773790478704,-0.212905376316607,0.40703565380815415
1687693626049525000,0.75052490234375,-0.1039502038180828,-0.08408785774558782,0.45431280715931205
1687693626059489000,0.760489013671875,0.22045126165151593,0.07076002800837158,0.4634401164667681
1687693626069451800,0.77045166015625,0.465645334893465,0.0944604909390211,0.4176017637470737
1687693626079415800,0.780415771484375,0.5383464139670133,0.0160360657826066,0.3604542641688138
1687693626089378800,0.79037890625,0.564248332464695,0.009228723855316638,0.40683435908239335
1687693626099342800,0.8003427734375,0.49069677404165263,0.030342385163158177,0.45152482040859754
1687693626109307000,0.810306884765625,0.23059739261269568,0.020533669462800025,0.43473567123636603
1687693626119270000,0.820269775390625,0.06228899065256118,0.06855696500614285,0.3765026414437219
1687693626129234000,0.83023388671875,0.18853753551840782,0.20539076290279626,0.4529138636142015
1687693626139198000,0.840197998046875,0.6266781928926706,0.2936791410781443,0.5533045117871835
1687693626149161000,0.850160888671875,1.1083663155704737,0.34981238557994365,0.5948391394309699
1687693626159124700,0.860124755859375,1.4446049338281153,0.35105274102985856,0.5764632325239479
1687693626169088800,0.8700888671875,1.4909849922090768,0.3012288258053362,0.5254333025105298
1687693626179051800,0.8800517578125,1.400502172729373,0.2735831323802471,0.4887077191162854
1687693626189015800,0.890015869140625,1.2466168483972548,0.2618852419324219,0.562527280825749
1687693626198978800,0.899978759765625,1.0464292070955037,0.2488613635778427,0.587890050945431
1687693626208942800,0.90994287109375,0.8240753266930579,0.22323475489020347,0.5845878310622648
1687693626218907000,0.919906982421875,0.6078367143005132,0.19407880303263664,0.6653160396490245
1687693626228870000,0.929869873046875,0.3923685017585754,0.18665873603448271,0.7337521547544748
1687693626238834000,0.939833984375,0.20607436125278472,0.17242475123777984,0.7473780906554311
1687693626248798000,0.9497978515625,0.09571195230484009,0.19675430585220455,0.7354035021580755
1687693626258761000,0.959760986328125,0.1664385164350271,0.19294322313144802,0.6898788915626705
1687693626268725000,0.96972509765625,0.42964463170766826,0.22092808538302777,0.6250108442023397
1687693626278689000,0.97968896484375,0.8495201490730047,0.22175912937968967,0.5572847770623862
1687693626288652000,0.989652099609375,1.0549433529406784,0.09723302439227699,0.43384818434473127
1687693626298615800,0.99961572265625,0.8099146993935108,-0.019875059423595666,0.3053223421966657
1687693626308579000,1.0095791015625,0.2546557290703058,-0.06745864837542176,0.3324285219175741
1687693626318542800,1.01954296875,-0.305558817833662,-0.018837971460819242,0.394089078473486
1687693626328507000,1.0295068359375,-0.48549803635478017,0.0864512258760631,0.49920193286277353
1687693626338470000,1.039469970703125,-0.3621288463175297,0.18048793844506145,0.518251026323624
1687693626348434000,1.049433837890625,-0.14307050032913685,0.1860050944313407,0.41048878993671384
1687693626358398000,1.05939794921875,-0.08348024724125862,0.12142375505790114,0.2736304786533117
1687693626368361000,1.06936083984375,-0.2118921076208353,0.019337299285084007,0.12103775141499935
1687693626378325000,1.079324951171875,-0.4121101440608501,0.000520662873238325,0.0681509049559012
1687693626388288000,1.0892880859375,-0.7745446953266859,0.008776888434588908,0.014121902724355458
1687693626398252000,1.099251953125,-1.1006138017475604,0.03122866647839546,0.03264299025572836
1687693626408216000,1.109216064453125,-1.3091513382434845,0.039301790557801725,0.06980177743546664
1687693626418178800,1.1191787109375,-1.3527601783454417,0.015366495957970619,0.06787128429692238
1687693626428143000,1.12914306640625,-1.2900672830671072,-0.06648425038531422,0.008456643504276872
1687693626438107100,1.139107177734375,-1.1933879470348356,-0.1413465991459787,0.013881006640568374
1687693626448070000,1.14906982421875,-1.0783218904405831,-0.1265177171960473,0.07235730713717639
1687693626458034000,1.159033935546875,-0.7646195136398076,-0.08425210839658975,0.11840572241097688
1687693626467997700,1.168997802734375,-0.25373510709404945,-0.0737744073934853,0.15241024681087584
1687693626477960700,1.178960693359375,0.23439853846132755,-0.0663254065617919,0.1211440613336861
1687693626487924700,1.1889248046875,0.3940425724506378,-0.12971534419357775,-0.004154818124510348
1687693626497887700,1.1988876953125,0.06719196026325225,-0.1365652100883424,0.013526092255674301
1687693626507852000,1.20885205078125,-0.24498013823032377,0.017702537690103052,0.11386592355687171
1687693626517816000,1.218816162109375,-0.23769758000671862,0.12348916315510869,0.1735936854192987
1687693626527779000,1.228779052734375,-0.14850713842511176,0.12243059401288628,0.15256543737258763
1687693626537743000,1.2387431640625,-0.1346849492996931,0.10742796293124555,0.10682546699345111
1687693626547707100,1.24870703125,-0.272014860150218,0.12886062706038354,0.1326077046342194
1687693626557670100,1.258670166015625,-0.25475743587911126,0.18309227572456002,0.1175268937498331
1687693626567634200,1.26863427734375,-0.09516250172853469,0.14869316251650452,0.11976053455341606
1687693626577598200,1.27859814453125,0.18629940120279787,0.10770941022112965,0.1260969710333273
1687693626587561200,1.288561279296875,0.5970926174461841,0.16337927499487995,0.0693660528993234
1687693626597525000,1.29852490234375,0.8935539365887641,0.26338702479749915,0.208694882482104
1687693626607488300,1.30848828125,0.8985492606580257,0.17408318596929312,0.15867913447991014
1687693626617452000,1.3184521484375,0.5795563762336969,0.10510989524722099,0.07070292752627283
1687693626627416000,1.328416015625,0.15382745666503905,0.06663447251096367,-0.0011852642618119715
1687693626637379000,1.338379150390625,-0.10284838005602359,0.04488119812533259,0.021414324754849074
1687693626647343000,1.348343017578125,0.185862763351202,0.03793079446554184,-0.01263813044000417
1687693626657307100,1.35830712890625,0.7637555902868509,0.07988543761968613,0.13519238736517727
1687693626667270100,1.368270263671875,1.1234411351054907,0.08496040279641746,0.11652275820858776
1687693626677234200,1.378234130859375,1.083172837603092,0.07310907535254955,0.045159686273150146
1687693626687197200,1.388197265625,0.6153197635322809,-0.004855331076681613,0.0076248688552528615
1687693626697161200,1.3981611328125,-0.09181319130063056,-0.0858672885082662,0.01876786536667496
1687693626707125200,1.408125244140625,-0.33851299293041226,0.012584902415424584,0.019680742427892983
1687693626717088300,1.418088134765625,-0.037277298992872236,0.07684227053150534,-0.12293894539382308
1687693626727052300,1.42805224609375,0.264825240907073,0.05488412122353911,-0.1125366111818701
1687693626737016300,1.438016357421875,0.6173445473581552,0.17358210457935927,-0.06678502343017607
1687693626746979300,1.447979248046875,0.8020674930244683,0.15772329505980015,-0.140560344139114
1687693626756943000,1.457943115234375,0.6078589261323213,0.051296325864642854,-0.288418444070965
1687693626766907100,1.4679072265625,0.037009003445506096,-0.03915872882530093,-0.3575516745951026
1687693626776870100,1.4778701171875,-0.6379004286527633,-0.10352657157853246,-0.3723192913444713
1687693626786834200,1.487834228515625,-0.772267398044467,-0.07920768448859453,-0.4833264644693583
1687693626796797200,1.497797119140625,-0.5549433285027742,-0.15965163277387617,-0.42512415860854086
1687693626806761200,1.50776123046875,-0.4342009798377752,-0.24954466966688632,-0.32091000662464647
1687693626816725200,1.517725341796875,-0.38912557431459427,-0.2100963102452457,-0.34551494411434974
1687693626826688000,1.52768798828125,-0.3960165028721094,-0.21096827077418565,-0.2631387856574729
1687693626836652000,1.537652099609375,-0.14918284572958945,-0.14904241434559226,-0.1310347562290728
1687693626846616300,1.5476162109375,0.047203065201640124,-0.17045739668756724,0.007517974414676427
1687693626856579000,1.5575791015625,0.1610270127803087,-0.1661427483588457,-0.006499664217606186
1687693626866543000,1.567543212890625,-0.10274842681288719,-0.1583130776464939,0.03774542796127498
1687693626876507100,1.577507080078125,-0.48817923826277254,-0.15119403942152856,-0.012586071459203959
1687693626886470100,1.58747021484375,-0.6044920800477266,-0.13527166314646602,-0.057774618500657376
1687693626896434200,1.59743408203125,-0.6648240914136171,-0.2034818605415523,0.05997106909900903
1687693626906397200,1.607397216796875,-0.7305202601611613,-0.24400442506596445,0.11940784865822643
1687693626916361200,1.617361328125,-0.5767535937726498,-0.1795418897666037,0.13560253906864672
1687693626926325000,1.627324951171875,-0.3325052769482136,-0.14233955570608375,0.34121249768007544
1687693626936288000,1.6372880859375,-0.07672200515270233,-0.07949833799824119,0.505808783781901
1687693626946252000,1.647251953125,0.11254384464025496,-0.013603431808203458,0.6103056982299313
1687693626956216000,1.657216064453125,0.12355915965139865,-0.0466411935351789,0.5352997397474945
1687693626966179000,1.667178955078125,0.21519290273189542,-0.03417188032343983,0.4311107952700928
1687693626976143000,1.67714306640625,0.41659810312986373,-0.00936813232600689,0.5350453265950084
1687693626986107100,1.687107177734375,0.5203899015158414,-0.027491087385267017,0.641237098794803
1687693626996070100,1.697070068359375,0.4147042522072792,-0.056397010004520416,0.6812888309370726
1687693627006034200,1.7070341796875,0.17734394133090972,-0.12694149556607007,0.7076375433541834
1687693627015997200,1.7169970703125,-0.06405483128130436,-0.13623948526531457,0.7387677178941666
1687693627025961200,1.726961181640625,-0.09900397958755493,-0.07529752530753613,0.8044633021198213
1687693627035925200,1.73692529296875,0.10300210931301117,-0.055932461232692,0.8745623820014298
1687693627045888300,1.74688818359375,0.3336877647310495,-0.07282616675794124,0.8572085116185247
1687693627055852300,1.756852294921875,0.45347792723774905,-0.06375263346433639,0.7915944681964814
1687693627065816000,1.766816162109375,0.5166852017790079,-0.025537761360406874,0.7713934647541493
1687693627075779000,1.776779052734375,0.679593206000328,0.04651829780787229,0.8298562481820583
1687693627085743000,1.7867431640625,0.8787269543349743,0.07608151529207825,0.819164758297801
1687693627095706000,1.7967060546875,0.8033943577140569,0.09116144939363002,0.7581821740686893
1687693627105670100,1.806670166015625,0.4480342748790979,-0.013007657872140407,0.6735004420831799
1687693627115634200,1.81663427734375,-0.018581366351246832,-0.08560629948452114,0.6227743173219263
1687693627125597200,1.82659716796875,-0.30150457400679587,-0.05148819517493248,0.5748376771487296
1687693627135561200,1.836561279296875,-0.3447077559173107,-0.04361059366762638,0.5795907534273341
1687693627145525200,1.846525146484375,-0.29878479365408417,-0.09886895503103732,0.5439106970306485
1687693627155488300,1.85648828125,-0.24687808080613613,-0.18063392278701065,0.492437370631285
1687693627165452300,1.866452392578125,-0.20481705466806888,-0.19672873301953075,0.4632716280320659
1687693627175416300,1.876416259765625,0.04990297181010246,-0.0698021427616477,0.5226668700044974
1687693627185379300,1.88637939453125,0.45853287253975866,0.07177636544406414,0.5702740224950015
1687693627195343400,1.89634326171875,0.8108768224239349,0.1369619543209672,0.5950785376774147
1687693627205306000,1.90630615234375,0.9485556928426027,0.1376627960667014,0.6109900272322818
1687693627215270100,1.916270263671875,0.8903203614950179,0.12263006210774183,0.5934447259305045
1687693627225234200,1.926234130859375,0.7806108634978532,0.21567016485482454,0.6208735252019018
1687693627235197200,1.936197265625,0.7335679572939873,0.31390520589649673,0.7303334323521703
1687693627245161000,1.946160888671875,0.585292874059081,0.295603533269465,0.7759355651631951
1687693627255125000,1.956125,0.2284615496277809,0.2020629336543381,0.7634294270724058
1687693627265088000,1.966087890625,-0.21210428906679152,0.0951044879309833,0.7224670098260044
1687693627275052000,1.976052001953125,-0.628501316666603,0.04566197323948144,0.6987473307382315
1687693627285016000,1.98601611328125,-0.8523550802379846,0.011573825676739214,0.689713106541708
1687693627294979000,1.99597900390625,-0.8078525061666965,0.002555675832182169,0.7725672577738761
1687693627304943000,2.005943115234375,-0.5427618923217058,0.0478928010314703,0.7931212393723428
1687693627314906000,2.015906005859375,-0.2828209163248539,0.022426205211132765,0.6897939897581935
1687693627324870100,2.0258701171875,-0.10525544119775294,-0.06156622933596372,0.5507230073940008
1687693627334834200,2.035834228515625,0.010703180322051047,-0.11507920833677053,0.4788371171608567
1687693627344797200,2.045797119140625,0.16176292583942412,-0.12033873630017042,0.48438324351329354
1687693627354761200,2.05576123046875,0.3020043402224779,-0.14745441450178623,0.5240900346754118
1687693627364725000,2.06572509765625,0.21405600765645502,-0.204977213665843,0.4980717963216826
1687693627374688300,2.075688232421875,-0.24559680882394314,-0.3120093091472983,0.43255598910972476
1687693627384652000,2.085652099609375,-0.9405705393075943,-0.38540582313910127,0.4569049060117453
1687693627394616000,2.095615966796875,-1.4945874006152151,-0.3691637133903801,0.580009051904641
1687693627404579000,2.1055791015625,-1.5803998901963232,-0.23575477537587283,0.6744039667941629
1687693627414543000,2.115543212890625,-1.249371115541458,-0.08755582611709832,0.7319277888715267
1687693627424506000,2.125506103515625,-0.8511948042869567,-0.025582185024023055,0.709707481496036
1687693627434470100,2.13547021484375,-0.5336503651052713,-0.05613251384943723,0.5873554691446945
1687693627444434200,2.14543408203125,-0.19376433025598525,-0.04155395339876413,0.5244036306692287
1687693627454397200,2.155397216796875,0.23100305080413816,0.020743074429780243,0.48137660904321816
1687693627464361200,2.165361328125,0.5287023873090744,-0.01589212726727128,0.47362570265550163
1687693627474325200,2.1753251953125,0.36052433373034,-0.09989742129594087,0.46890283885207024
1687693627484288300,2.185288330078125,-0.2513537649154663,-0.15807006267085671,0.42825529624111947
1687693627494252300,2.195252197265625,-0.9192167856335639,-0.1441017430730164,0.3904943053845316
1687693627504215800,2.2052158203125,-1.1734124959766865,-0.010125088173151015,0.44521892519742245
1687693627514178800,2.2151787109375,-0.8271148405194282,0.05169584657624363,0.5602125010773539
1687693627524142800,2.225142822265625,-0.3580851238846779,-0.07278028178960085,0.5136494873449206
1687693627534105600,2.235105712890625,-0.16542261739075184,-0.1814300416007638,0.34574444202128796
1687693627544070000,2.24506982421875,-0.24404957938194274,-0.25642259261235595,0.22085180527642367
1687693627554033700,2.25503369140625,-0.371138082203269,-0.3018478344865143,0.19216255761515347
1687693627563996700,2.26499658203125,-0.2455494625508785,-0.1875944094493985,0.3305309812005609
1687693627573960400,2.27496044921875,0.03042436435818672,0.006930091524124145,0.5622992076909169
1687693627583924700,2.2849248046875,0.29262101032733917,0.1152213932864368,0.6840574919328093
1687693627593887500,2.294887451171875,0.5057698400110006,0.14602876561284064,0.631396526651457
1687693627603851500,2.3048515625,0.7283984457015991,0.1793036970965564,0.5590851775478571
1687693627613815600,2.314815673828125,0.9914274508416652,0.24348332380130885,0.6133421798489987
1687693627623778600,2.324778564453125,1.045046812826395,0.18685469699800014,0.7132649547819048
1687693627633742600,2.33474267578125,0.755306910893321,0.07876637046188116,0.603591843272373
1687693627643705600,2.34470556640625,0.3671323536932468,0.08832432627156377,0.5322921554293483
1687693627653669600,2.354669677734375,0.2377431727141142,0.26818331916332244,0.5543354988027364
1687693627663633700,2.364633544921875,0.48148237097263336,0.42606706548184153,0.7579702118184417
1687693627673596700,2.3745966796875,0.9649930329024791,0.5128985228471458,0.917796543572098
1687693627683560700,2.384560791015625,1.4682693025320768,0.5150692910149693,0.8932831568233668
1687693627693524500,2.3945244140625,1.792218348059058,0.41780689439773555,0.7413545925822108
1687693627703487700,2.40448779296875,1.6553841117709873,0.25491993296444415,0.5299478573255241
1687693627713451500,2.414451416015625,1.1014999369323253,0.14639555309861899,0.4930148417256772
1687693627723415600,2.42441552734375,0.5728916576474905,0.18586597822159528,0.4959823132291436
1687693627733378600,2.434378662109375,0.4226823914796114,0.3270994723819196,0.4995232007063925
1687693627743342600,2.444342529296875,0.7198392916709184,0.36072526312991976,0.5397912790130823
1687693627753305600,2.4543056640625,0.9335749813318251,0.290727305535227,0.4549295873507857
1687693627763269600,2.46426953125,0.8484645025402306,0.24204919934496283,0.39316052891910075
1687693627773233700,2.474233642578125,0.6115776543945074,0.16862740478143096,0.4002457379397005
1687693627783196700,2.48419677734375,0.601169657626748,0.1815961919479072,0.4471875949218869
1687693627793160700,2.49416064453125,0.8527022862404584,0.1938585844106972,0.4758105358812958
1687693627803124700,2.504124755859375,0.9036006988286972,0.076382251804322,0.3800532100647688
1687693627813087700,2.514087646484375,0.5251929178833962,-0.013839140260219573,0.37568025567755103
1687693627823051800,2.5240517578125,-0.1771229920566082,0.04571458020955324,0.4938518040064722
1687693627833015800,2.534015869140625,-0.6019874037504196,0.18389497040957212,0.5948075021836906
1687693627842978800,2.543978759765625,-0.24214228445589542,0.330205913964659,0.7024976231824607
1687693627852942600,2.553942626953125,0.4697194524645805,0.4459554227784276,0.9409205948542803
1687693627862905900,2.56390576171875,1.0316332045018672,0.47145168308466673,0.9544971386555582
1687693627872869600,2.57386962890625,1.1187713897287845,0.3494173949129879,0.8294661528859287
1687693627882833700,2.583833740234375,0.5403185908228159,0.1816015987753868,0.7010745315767825
1687693627892796700,2.593796630859375,-0.5297013352185488,0.14388006314635277,0.5833848484806716
1687693627902760700,2.6037607421875,-1.128168163627386,0.3283152779124677,0.5936638120412826
1687693627912724700,2.613724853515625,-0.6925409503787756,0.4196319178678095,0.7348576317783445
1687693627922687700,2.623687744140625,0.03742050685584545,0.3070142773389816,0.8951830721605568
1687693627932651800,2.63365185546875,0.1098760867357254,0.1682975883051753,0.8637686738517135
1687693627942615800,2.64361572265625,-0.7447235575586557,0.01598462785631418,0.7900767571099102
1687693627952578600,2.65357861328125,-1.9170219548135994,-0.08935673805922269,0.9194134772494434
1687693627962542800,2.66354296875,-2.1605378657102583,-0.01919438368305564,1.0203353462222964
1687693627972507000,2.6735068359375,-1.2275327932208775,0.1465868378870189,1.0396532101545481
1687693627982469600,2.6834697265625,-0.23888182135522365,0.18107129129096863,1.130514799818769
1687693627992433700,2.69343359375,0.3335083165109157,0.062095660037547344,0.9340757704608141
1687693628002396700,2.703396728515625,0.2760147434413433,-0.08915127861499786,0.9117224843554198
1687693628012360400,2.7133603515625,-0.6254921979784965,-0.2822512997433543,1.0570230818241835
1687693628022324500,2.723324462890625,-1.8536551057964563,-0.3114960989281535,1.1828105850495398
1687693628032287500,2.73328759765625,-2.5790315733283755,-0.15607830433174966,1.2246652018953115
1687693628042251500,2.74325146484375,-2.5052730941563843,0.074323273447901,1.2362787019953132
1687693628052215600,2.753215576171875,-1.7769021209836005,0.2259649105064571,1.3107161033421755
1687693628062178600,2.763178466796875,-0.7941641725540161,0.24903102105632424,1.403405785216391
1687693628072142600,2.773142578125,-0.26235154426991936,0.0832303641334176,1.3275957803420722
1687693628082106600,2.783106689453125,-0.5367962619155645,-0.15910130541473627,1.2485305730640888
1687693628092069600,2.793069580078125,-1.3141197743058204,-0.2553483875095844,1.1962985737845302
1687693628102033700,2.80303369140625,-1.879178254109621,-0.06638342035934329,1.1508458593815565
1687693628111996700,2.81299658203125,-1.709009318974614,0.18594693450331687,1.2110268449041992
1687693628121960700,2.822960693359375,-1.2358774277180433,0.2128710356555879,1.309241354614496
1687693628131924700,2.8329248046875,-1.0672060376644135,0.046143765407055615,1.3593081386841832
1687693628141887700,2.8428876953125,-1.6370324625223873,-0.14594313315600155,1.3167623977690934
1687693628151851800,2.852851806640625,-2.2942384801477194,-0.12615370618924499,1.2578136574551462
1687693628161815600,2.862815673828125,-2.086089066186547,0.12270531930103898,1.2398922163173556
1687693628171778600,2.872778564453125,-1.085571715438366,0.269883108818531,1.2523173981264233
1687693628181742600,2.88274267578125,0.02235737775862217,0.174338914296031,1.1076461846023797
1687693628191706600,2.89270654296875,0.6509796904563904,0.001069528927654028,0.9111435884889215
1687693628201669600,2.902669677734375,0.5821002154976129,-0.1123071132749319,0.8114929815609008
1687693628211633700,2.912633544921875,0.05316986465156078,-0.07051204459667205,0.9210815565921365
1687693628221597700,2.92259765625,-0.5423655864804983,0.08110153541117907,1.0944307291984559
1687693628231560700,2.932560791015625,-0.8742448404848575,0.19319047589078545,1.1374256751857696
1687693628241524700,2.942524658203125,-0.8747317472189664,0.2564982881970703,1.1239642821967601
1687693628251487700,2.95248779296875,-0.6580190875738858,0.26022154650390145,1.0518984322868288
1687693628261451800,2.96245166015625,-0.5192056601673364,0.21861644743978975,1.0563218747522682
1687693628271415800,2.972415771484375,-0.5689344444543123,0.1852072220519185,1.0730358397964388
1687693628281378800,2.98237890625,-0.6068909578830003,0.22469255248308181,1.0710545297861098
1687693628291342800,2.9923427734375,-0.2726800460606813,0.3340973684452474,1.025668597009033
1687693628301306600,3.002306640625,0.34310616593956944,0.3796666949652135,1.0094049330156296
1687693628311270000,3.012269775390625,0.8598392985135316,0.37719533641561864,1.0241414605069905
1687693628321233700,3.022233642578125,1.1295330222398041,0.35042277256324883,1.0523257908534258
1687693628331197700,3.03219775390625,1.0149491962045432,0.2931380199387669,1.0550894834131002
1687693628341160700,3.04216064453125,0.6484434499770403,0.3516185582190752,1.0307250036157667
1687693628351124700,3.052124755859375,0.30464579464197156,0.4706228310450911,1.0228327159959822
1687693628361087500,3.06208740234375,0.21017653587460516,0.5671722570873796,0.9433939261652529
1687693628371051500,3.072051513671875,0.4461398394346237,0.6189784321703017,0.8850092494748533
1687693628381015600,3.082015625,0.8860463374376296,0.6364866163320839,0.8467407474875449
1687693628390978600,3.091978515625,1.277525196880102,0.624445027013123,0.791308417796716
1687693628400942600,3.101942626953125,1.3377993405789137,0.5382276098929345,0.781750681182742
1687693628410906600,3.11190673828125,0.9640484455287456,0.4141891422919929,0.75478186410591
1687693628420869600,3.12186962890625,0.46286125713288784,0.43658290653824805,0.7750200577534735
1687693628430833700,3.131833740234375,0.24599311466515064,0.5554838651202618,0.8882375638715923
1687693628440797400,3.14179736328125,0.46678924423158163,0.6183709677964448,0.9607929508641362
1687693628450760700,3.1517607421875,0.8511936352431774,0.5711798852935434,0.9997931281268596
1687693628460724500,3.161724365234375,1.0363152248382568,0.47697760689929125,0.9974141971010714
1687693628470688500,3.1716884765625,0.7975935624808073,0.360298708280921,0.9203237970273941
1687693628480651500,3.181651611328125,0.33539749125838275,0.2719851956643164,0.9477912112761289
1687693628490615600,3.191615478515625,-0.0058019642770290375,0.26812866636663674,0.9265147606220095
1687693628500578800,3.201578857421875,-0.10461889685988425,0.27124431416913863,0.8619740455199032
1687693628510542800,3.21154296875,0.06023848786354065,0.23988281509131193,0.8385217851966619
1687693628520507000,3.2215068359375,0.21215105081796645,0.263878753837198,0.8708032486636191
1687693628530470000,3.231469970703125,0.1669967348396778,0.27068463445976376,0.8535095109701156
1687693628540434000,3.241433837890625,-0.1850660600155592,0.2796197821959853,0.7959499599922448
1687693628550398000,3.25139794921875,-0.35540158388912674,0.35936917234584687,0.7881657358568162
1687693628560361000,3.26136083984375,-0.04277648093104362,0.43152576927915215,0.7873308924678712
1687693628570325000,3.271324951171875,0.38661271471083164,0.43755102091804143,0.8307930175755173
1687693628580288800,3.281288818359375,0.5718728359937667,0.3809416833370924,0.7736218813933432
1687693628590252000,3.291251953125,0.08512041566371917,0.24622969990000126,0.6436543890696018
1687693628600215800,3.3012158203125,-0.9264344619274139,0.19047201071232556,0.6478552017603069
1687693628610179000,3.311178955078125,-1.4358248305231331,0.2969783287540078,0.7586180082026869
1687693628620142800,3.321142822265625,-0.7843751844674348,0.3718889005705714,0.8409240240328013
1687693628630107000,3.33110693359375,0.23116437884569166,0.33506402152031656,1.0121515283100306
1687693628640070000,3.34106982421875,0.810496298673749,0.27401626310050486,0.9733487002503126
1687693628650034000,3.351033935546875,0.6060819795876741,0.09885244228765368,0.7426124836888164
1687693628659998000,3.360998046875,0.005434884530305862,0.0050064299851655955,0.7350694478981197
1687693628669961000,3.3709609375,-0.3513309734493494,0.1857305152736604,0.8212523051615804
1687693628679925000,3.380925048828125,-0.11397007805109023,0.3963810984008014,0.9491966941598802
1687693628689889000,3.390888916015625,0.4227472734093666,0.4377950588069856,0.9914650794383137
1687693628699852000,3.40085205078125,0.6588005933403969,0.3634798225350678,0.8550059600729495
1687693628709816000,3.410816162109375,0.5325479568213224,0.2857341734230518,0.7245924775473773
1687693628719780000,3.420780029296875,0.19023206447660923,0.2663333073824644,0.7605538716360927
1687693628729743000,3.4307431640625,-0.09161503838002681,0.2211030035585165,0.7962642135731876
1687693628739707000,3.440706787109375,-0.17649170841574668,0.23236922459080814,0.7942438867267221
1687693628749671000,3.4506708984375,-0.212950092241168,0.2358732871890068,0.744218019189313
1687693628759634000,3.460634033203125,-0.22122166150212286,0.20307138004451988,0.7057135164890438
1687693628769598000,3.470597900390625,-0.06071662676930427,0.23634032017886636,0.7824589755825698
1687693628779560700,3.480560791015625,0.23432021252810953,0.2373794539682567,0.8189442474149167
1687693628789524700,3.490524658203125,0.551357286709547,0.2938561050802469,0.8321859332386404
1687693628799489000,3.500489013671875,0.8766390421450138,0.3465652203522622,0.86511563148126
1687693628809451800,3.51045166015625,1.1556646578401326,0.3374598306156695,0.7976092715065926
1687693628819415800,3.520415771484375,1.0945224991351366,0.3352795639671385,0.6966315076280385
1687693628829379800,3.5303798828125,0.6861854438722134,0.3323746363058686,0.6288653276734054
1687693628839342800,3.5403427734375,0.22327274881303308,0.3600818506598472,0.6258398423723877
1687693628849307000,3.550306884765625,0.002954173630475998,0.41394335083737965,0.6188265295442194
1687693628859271000,3.56027099609375,-0.0438490785986185,0.4191309826083481,0.6278877148129045
1687693628869234000,3.57023388671875,-0.25989246068000793,0.3439889401234686,0.5783548184242099
1687693628879198000,3.580197998046875,-0.5709148046165704,0.27452041323035953,0.5637566764902323
1687693628889161000,3.590160888671875,-0.72975804361701,0.2707552154779434,0.6069880615819245
1687693628899124700,3.600124755859375,-0.5822352400541305,0.2561240480571985,0.6917715003762394
1687693628909088800,3.6100888671875,-0.258094471347332,0.1629252476170659,0.7766064501620829
1687693628919051800,3.6200517578125,-0.01597381420135498,0.1286293025225401,0.775239253462106
1687693628929015800,3.630015869140625,0.11132570102214813,0.20309651448577642,0.7463523278042674
1687693628938979800,3.639979736328125,0.1791623889297247,0.23922128244265914,0.7962407596323638
1687693628948942800,3.64994287109375,0.2633434779167175,0.23923472644612193,0.8973357932150363
1687693628958907000,3.659906982421875,0.315605580073595,0.21843962956815957,0.8772744174391031
1687693628968871000,3.669870849609375,0.27573358841240403,0.24114392106831073,0.8134548562183975
1687693628978834000,3.679833984375,0.09475508997142314,0.27093349465429784,0.8363746901653707
1687693628988798000,3.6897978515625,-0.2520288876980543,0.3240960527822375,0.8548927820220589
1687693628998762000,3.699761962890625,-0.5464221683949232,0.33572087799385186,0.8544964031156151
1687693629008725000,3.70972509765625,-0.7788572978287934,0.2955141014203429,0.8099678908854723
1687693629018689000,3.71968896484375,-0.8759177421331406,0.21327596319466827,0.7782301058411598
1687693629028652800,3.72965283203125,-0.6337491541922092,0.21244535758942365,0.7613269018352031
1687693629038616000,3.739615966796875,-0.13282558516860007,0.221022777929157,0.8581709269098937
1687693629048579800,3.749579833984375,0.31673195375502106,0.17649331585094333,0.8496171797066926
1687693629058542800,3.75954296875,0.18367372887432573,-0.011587415810674429,0.7170403086021542
1687693629068507000,3.7695068359375,-0.5960270340412854,-0.1458238906905055,0.6795759626045823
1687693629078471000,3.779470947265625,-1.4499614924252033,-0.09128872903510928,0.7512868615970015
1687693629088434000,3.789433837890625,-1.5032809946805237,0.06426379785686731,0.8121469884902238
1687693629098398000,3.79939794921875,-0.8774269776523113,0.12259835179522632,0.9490572126239538
1687693629108362000,3.809362060546875,-0.33524726913273334,0.07114142854139209,0.950947118023783
1687693629118325000,3.819324951171875,-0.0256236860781908,0.05798588663116097,0.6801032013490795
1687693629128289000,3.8292890625,0.19761925211846829,0.05896861405819654,0.546844923851639
1687693629138253000,3.839253173828125,0.18271160584390161,0.0370434902369976,0.5164689652124419
1687693629148216000,3.849216064453125,-0.17955168050825596,0.0397613708935678,0.45692123609203844
1687693629158180000,3.85918017578125,-0.833143014767766,0.04993731247112155,0.33918793304990974
1687693629168144000,3.869143798828125,-1.323880120819807,0.10547449077591299,0.3352749608572572
1687693629178107100,3.879107177734375,-1.2540642417937515,0.24757965320423245,0.48431459872387345
1687693629188071000,3.88907080078125,-0.7423398772925138,0.29307036153003574,0.6752271197453141
1687693629198034000,3.899033935546875,-0.40619302897155285,0.17718056746274233,0.7819917964622378
1687693629207997700,3.908997802734375,-0.48545419721305366,0.04168488630205393,0.7646103074200451
1687693629217961700,3.918961669921875,-0.6318278307408094,0.07447861014008522,0.7991567201443016
1687693629227924700,3.9289248046875,-0.35353286740779877,0.19601371661797165,0.9647595894727855
1687693629237888800,3.938888671875,0.05750467898547649,0.2534809862025082,1.104913544768095
1687693629247851800,3.948851806640625,0.37699440701603887,0.22569471526294946,0.9972178708113729
1687693629257814800,3.958814697265625,0.42801089302599427,0.1676692272737622,0.9101505588635802
1687693629267778800,3.96877880859375,0.029997663378715515,0.13234919982850551,0.9507822097856551
1687693629277742800,3.978742919921875,-0.6704056909382343,0.1420664378531277,1.0425337340269236
1687693629287705900,3.988705810546875,-1.1444845076560974,0.24335312155038116,1.06516773676984
1687693629297670000,3.998669921875,-0.9723650229752063,0.33968671288490293,0.9755775552809238
1687693629307634000,4.008634033203125,-0.3178507286518812,0.3520189557135105,0.9414480527944862
1687693629317597000,4.018596923828125,0.47379123194813727,0.33581177114769817,0.9225801976520568
1687693629327561000,4.02856103515625,0.9124369162350893,0.19226050156429408,0.8493069447137415
1687693629337525000,4.03852490234375,0.37436931920945643,-0.061033729894459245,0.798185756220296
1687693629347488000,4.048488037109375,-1.0308119512468576,-0.14631518133878707,0.7952579591400921
1687693629357452000,4.0584521484375,-2.102100874310732,0.09389584279358386,0.954420493222773
1687693629367415800,4.068415771484375,-1.6210919660687446,0.3680820556335151,1.2445900187447667
1687693629377378800,4.07837890625,-0.34950375802218914,0.5583911308690905,1.4279660798467695
1687693629387342800,4.0883427734375,0.8574275611966848,0.5928277996085584,1.2608303749278187
1687693629397305900,4.098305908203125,1.5832172857046127,0.46129064681529997,1.0198786154307424
1687693629407270000,4.108269775390625,1.679835246938467,0.28441008521243927,0.8673227130714803
1687693629417234000,4.11823388671875,1.2246288884729146,0.1554068348109722,0.7995284760661423
1687693629427197000,4.128197021484375,0.5900310084968805,0.10615852751731872,0.6962190543696284
1687693629437161000,4.138160888671875,0.06001636954545975,0.13678133705705403,0.6113122083913535
1687693629447125000,4.148125,-0.31456396206617354,0.2481099606886506,0.6952462638147174
1687693629457088000,4.158087890625,-0.3975006039500236,0.2707499547809362,0.863449305704236
1687693629467052000,4.168052001953125,-0.31288989137411116,0.270205764901638,0.9719717858739196
1687693629477016000,4.17801611328125,-0.012782909205555915,0.3565257656134665,1.0142297958888113
1687693629486979000,4.18797900390625,0.4660194289028644,0.3261794349275529,0.9511992661539465
1687693629496943000,4.197943115234375,0.8656529532283544,0.26846608162745833,0.7643798596650362
1687693629506907000,4.207906982421875,1.1104092195749282,0.2228219363056123,0.6023185354009271
1687693629516870100,4.2178701171875,1.2427344540059566,0.2834777727983892,0.5515741077980026
1687693629526834000,4.227833984375,1.1907815639287234,0.31161212652325626,0.5034792813884094
1687693629536797000,4.237796875,0.9678729722529649,0.3487833347931504,0.4925097052151337
1687693629546761000,4.247760986328125,0.6750888803184032,0.41096112015619873,0.619169863089174
1687693629556725000,4.25772509765625,0.34864918701946734,0.4079575544260442,0.6479900071211159
1687693629566688000,4.26768798828125,0.12720540719926357,0.39742446997389197,0.6200934076748787
1687693629576652000,4.277652099609375,-0.030307459980249404,0.35708588371425865,0.5449850482638925
1687693629586616000,4.287615966796875,-0.07747779195606708,0.3286269742101431,0.49265338800214226
1687693629596579000,4.2975791015625,0.05574702166318893,0.356595615979284,0.5442648442305624
1687693629606543000,4.307543212890625,0.34418986952304836,0.47754269343614575,0.6094224125893786
1687693629616507100,4.317507080078125,0.6931237187027931,0.5181397845014929,0.5713586759265512
1687693629626472000,4.327471923828125,0.5755465560704469,0.43018049215003845,0.435844363130629
1687693629636435000,4.33743505859375,0.10379589003920554,0.40610520455762744,0.503482971182838
1687693629646399000,4.34739892578125,-0.26521044083237644,0.4258871788702905,0.574690560295619
1687693629656363000,4.357363037109375,-0.49016076746881004,0.39423356497809287,0.5514596876380965
1687693629666326000,4.367325927734375,-0.4603057274311781,0.3131596482262015,0.516610711770691
1687693629676290000,4.3772900390625,-0.3206879979044199,0.22003625110983846,0.5105797610433772
1687693629686254000,4.387254150390625,-0.09757716165482998,0.15777122585475445,0.523220887158066
1687693629696217000,4.397217041015625,-0.025599136158823966,0.08704699981212616,0.5359644507339224
1687693629706181000,4.40718115234375,-0.3255097189724445,-0.030056700089573857,0.45877303797118363
1687693629716145200,4.417145263671875,-0.8460778996646404,-0.052194736009091136,0.4353040822414681
1687693629726108200,4.427108154296875,-1.2149369310200213,-0.0269090497136116,0.45616924868095665
1687693629736072000,4.437072021484375,-1.0118874705463647,0.02288929267823696,0.39939449140522626
1687693629746035200,4.44703515625,-0.4887339495360851,0.06638780427351594,0.4523826062817126
1687693629755999000,4.4569990234375,-0.26227555642426015,0.02205941772535443,0.43170908995680507
1687693629765963000,4.466962890625,-0.6189005446285009,-0.06364931922033429,0.2977181142706424
1687693629775926000,4.476926025390625,-1.2828431770324706,-0.12251564194783568,0.3128578888006508
1687693629785890000,4.48689013671875,-1.4643869081407785,-0.07421674433350563,0.3149086838506162
1687693629795854000,4.49685400390625,-0.9021697892427444,0.002560936529189348,0.37825723002608863
1687693629805817000,4.506817138671875,-0.23815876777768133,0.06109598147571087,0.6148998576197773
1687693629815781000,4.516781005859375,0.1537076296776533,0.033183161547034976,0.4985420441819355
1687693629825745200,4.5267451171875,-0.10785714812874793,-0.09116992496103048,0.2955256822602823
1687693629835708200,4.536708251953125,-0.8862707938432693,-0.12669701928570865,0.29031415815707295
1687693629845672200,4.546672119140625,-1.527656142002344,-0.01977963622510433,0.3469653621183708
1687693629855636200,4.55663623046875,-1.299651688492298,0.09599398411661386,0.306655709692277
1687693629865599000,4.566598876953125,-0.5799784010380507,0.11214213197156786,0.400671854397282
1687693629875563300,4.576563232421875,0.07001753907799721,0.13473580270409583,0.494272805897519
1687693629885527000,4.586527099609375,0.4251473202884197,0.17445859515294432,0.3884400397358462
1687693629895490000,4.596489990234375,0.23565701408982276,0.07978592276796698,0.3308211963187903
1687693629905453800,4.606453857421875,-0.34384733969569203,0.010467471870034932,0.39465000029187647
1687693629915416800,4.616416748046875,-0.8212567621409893,0.12203940273821354,0.45971229158267374
1687693629925380900,4.626380859375,-0.44776539480984207,0.28276524061486125,0.38949159461539234
1687693629935345000,4.636344970703125,0.21389584865868091,0.31603622657582164,0.48324466793742027
1687693629945308000,4.646307861328125,0.6264788709282875,0.33163360868021846,0.4770005859160796
1687693629955272000,4.65627197265625,0.4141360969305038,0.27868016325831413,0.4460795971473679
1687693629965236000,4.666236083984375,-0.11882219425737857,0.19257658177614212,0.3762930172810331
1687693629975199000,4.676198974609375,-0.4999567698180675,0.18989333404153586,0.39157395384740085
1687693629985163000,4.6861630859375,-0.5443827715218067,0.20191607252955435,0.45016182495970275
1687693629995127000,4.696126953125,-0.3255857068181038,0.20441782621741295,0.5017353968631476
1687693630005090000,4.706090087890625,-0.18303250836133955,0.16311857823207973,0.518274991721101
1687693630015054000,4.71605419921875,-0.14603402630984783,0.1516391528405249,0.47736985761988904
1687693630025017900,4.726017822265625,-0.0023375030368566513,0.2243697502695024,0.5648558699037879
1687693630034981000,4.735981201171875,0.19405600667893885,0.24099983642250297,0.6743813896361738
1687693630044945000,4.74594482421875,0.3339110520929098,0.19123335047364234,0.6446930114023387
1687693630054909000,4.755908935546875,0.4495762436240911,0.18021262863501905,0.5322227799875662
1687693630064872000,4.765871826171875,0.4315700468122959,0.2230290031850338,0.4535907764950767
1687693630074836000,4.7758359375,0.3535013032257557,0.2904211621955037,0.38869923866130407
1687693630084800000,4.785800048828125,0.40344285348057746,0.3665305884078145,0.3630005511181429
1687693630094763000,4.795762939453125,0.6741425393790006,0.424724272570759,0.4656459924805909
1687693630104727000,4.80572705078125,0.8778530941098928,0.4094670822061598,0.5478292952464893
1687693630114691000,4.815691162109375,0.6887403890520334,0.3629784488841891,0.5362742473354563
1687693630124654000,4.825654052734375,-0.012582418197393417,0.21568463177159428,0.4886286259980872
1687693630134618000,4.8356181640625,-0.73798285112679,0.15778963829427956,0.4731490250544622
1687693630144581000,4.8455810546875,-0.7766454669982195,0.23288199641853569,0.47656380193401127
1687693630154545200,4.855545166015625,-0.04627718252837658,0.26570319278538224,0.5660973943974822
1687693630164509200,4.86550927734375,0.6983417456120252,0.22436989639997482,0.6995009986497461
1687693630174472200,4.87547216796875,0.9929653279334306,0.09690905313491821,0.39738179987594485
1687693630184436000,4.88543603515625,0.7159633270204067,-0.048373862546682356,0.24265023397803306
1687693630194400000,4.89539990234375,-0.02687339387834072,-0.143322867655009,0.3493003809371963
1687693630204363000,4.905363037109375,-0.686773472893238,-0.07865048899725079,0.46791236650999635
1687693630214327000,4.9153271484375,-0.8018342687904835,0.013656769430637358,0.5235014941977336
1687693630224291000,4.925291015625,-0.508570284384489,0.03203472216427326,0.5001164173591882
1687693630234254000,4.935254150390625,-0.2076993321061134,0.07324702251851559,0.525123542441614
1687693630244218000,4.945218017578125,0.005090601137280464,0.15722805888876318,0.6100636696349829
1687693630254182100,4.95518212890625,0.16848960374593733,0.2472296707227826,0.6238362474650144
1687693630264145200,4.965145263671875,0.3405670028507709,0.26982100336775183,0.46307285405695436
1687693630274109200,4.975109130859375,0.5345733251690864,0.3384273604735732,0.3285279708150774
1687693630284073200,4.9850732421875,0.7524041751891374,0.43643794510960576,0.3213187335560098
1687693630294036200,4.9950361328125,0.7874474315196275,0.4706126019120216,0.38418530490081754
1687693630304000300,5.005000244140625,0.5596861391156912,0.46593525775074957,0.4029512340387329
1687693630313963000,5.014962890625,-0.01331774673461914,0.41911826925724743,0.39967049533501264
1687693630323927000,5.024927001953125,-0.5404653058171272,0.410339481126517,0.440961815742217
1687693630333890800,5.034890869140625,-0.30347441277503967,0.4320646984614432,0.5510353978114202
1687693630343853800,5.044853759765625,0.2966401828408241,0.3843839327454567,0.7564356226623058
1687693630353817900,5.05481787109375,0.6470534569233656,0.19827099402546883,0.6704493839494884
1687693630363782000,5.064781982421875,0.46213528094589706,-0.044975452280044556,0.41193621226605026
1687693630373745000,5.074744873046875,-0.20022271261513233,-0.15257453399449586,0.31412787220384925
1687693630383709000,5.084708984375,-0.6454869382590055,-0.03835091957375407,0.39782271204385905
1687693630393673000,5.0946728515625,-0.31608138089179993,0.12299275794029235,0.5472681542323902
1687693630403636000,5.104635986328125,0.3641103755235672,0.155109751560539,0.5687002338396385
1687693630413600000,5.11460009765625,0.7646621837377547,0.06220978793650865,0.28810598058830944
1687693630423564000,5.12456396484375,0.7175596563011407,0.03509206390827894,0.10065667869802564
1687693630433527000,5.134527099609375,0.44824587180316444,0.057532589905709024,0.24225031140763312
1687693630443491000,5.144490966796875,0.1645043335020542,0.1342461194910109,0.40730559332333505
1687693630453454800,5.154454833984375,-0.08466974928677082,0.13689473430365323,0.37211792355347423
1687693630463418000,5.164418212890625,-0.18475509437024593,0.16455927855968475,0.3182328598372638
1687693630473382000,5.1743818359375,-0.14184651149213312,0.21522388239204882,0.35498657334744926
1687693630483346000,5.184345947265625,0.004094575837254524,0.3199070766597986,0.5290995334004983
1687693630493309000,5.194308837890625,0.16263737058639524,0.338594679864496,0.6411703902341425
1687693630503273000,5.20427294921875,0.08760755630433559,0.1757471736587584,0.48000250767841934
1687693630513237000,5.214237060546875,-0.26293489711582657,0.05544672354236245,0.2816981228400022
1687693630523199700,5.22419970703125,-0.565482842695713,0.07828560120761394,0.1980049635004252
1687693630533164000,5.2341640625,-0.4192378039836883,0.13958821117132902,0.23694635978061704
1687693630543126800,5.244126708984375,-0.023586627292633056,0.14257380285337568,0.25567816745322197
1687693630553090800,5.2540908203125,0.10789221944212912,-0.0484862368799746,0.15938520039003343
1687693630563054800,5.264054931640625,-0.30741759744286534,-0.21120061822533606,0.1325427861718461
1687693630573017900,5.274017822265625,-1.0318044694155455,-0.15151348063424228,0.27538397125713526
1687693630582982000,5.28398193359375,-1.2099947984427213,-0.03854088918790221,0.3717554834492504
1687693630592946000,5.29394580078125,-0.602947188693285,0.0724761842764914,0.49181061703506856
1687693630602909000,5.303908935546875,0.050958033820986744,0.05021554489061236,0.4783850260118022
1687693630612873000,5.313873046875,0.1944599113047123,-0.13346724407300353,0.2773452979253605
1687693630622836700,5.323836669921875,-0.2657616449743509,-0.16545461996421218,0.2931195344340056
1687693630632799700,5.3337998046875,-0.9518091416805982,0.004392828131467103,0.41907801031209524
1687693630642763800,5.343763671875,-0.949163011085987,0.24850334392040965,0.5095888868425041
1687693630652727800,5.353727783203125,-0.21869243528544902,0.3562666762858629,0.6296122735831886
1687693630662690800,5.36369091796875,0.5599702167540789,0.32860447011739014,0.5733268341943621
1687693630672654800,5.37365478515625,0.9118728526115417,0.23140549412518738,0.5250440839972347
1687693630682619000,5.383618896484375,0.5501537561386823,0.06098375327289104,0.5196370373219251
1687693630692582000,5.393581787109375,-0.3011877631425857,0.04408829418197274,0.5391179828613997
1687693630702546000,5.4035458984375,-1.018283893585205,0.13559037370681762,0.6112468515375629
1687693630712510000,5.413510009765625,-0.9730904146403073,0.22024258733689783,0.6301879545792937
1687693630722473000,5.423472900390625,-0.22304770788550377,0.23656404593214392,0.6267917362697422
1687693630732437000,5.43343701171875,0.510114591217041,0.2044919143669307,0.5226255150808021
1687693630742400000,5.44339990234375,0.8323422197788953,0.07850625822097063,0.3739783105978742
1687693630752364000,5.453364013671875,0.5671709419131279,-0.08763649013787507,0.3289364785507321
1687693630762327800,5.463327880859375,0.016247370445728302,-0.1324896312125027,0.30756887901443986
1687693630772291800,5.473291748046875,-0.26194705512225624,-0.014683189868927,0.27452399342693384
1687693630782254800,5.4832548828125,-0.07524900999069213,0.08416837563589215,0.21416619003266094
1687693630792219000,5.493218994140625,0.15107026691138745,0.026290625554323196,0.10634528226107358
1687693630802182000,5.503181884765625,0.204126734316349,0.017551877173036336,0.12108498809020965
1687693630812146000,5.51314599609375,0.015789689806103704,0.09407032257765531,0.21983755019996315
1687693630822110000,5.52310986328125,-0.21621230890750884,0.17963395196422932,0.2487878599502146
1687693630832073000,5.533072998046875,-0.06873159092068672,0.2232991984285414,0.27111528096199033
1687693630842037000,5.543037109375,0.48399464605450626,0.24738339997977016,0.23296587530970572
1687693630852001000,5.5530009765625,0.9344190309405326,0.2222697092503309,0.18186839648541062
1687693630861964000,5.562964111328125,0.8363631458580494,0.15340265538170933,0.1481611014664173
1687693630871928000,5.572927978515625,0.039032033705711365,0.10155234889611602,0.10327263335008173
1687693630881891800,5.582891845703125,-0.7132312717080116,0.18009806234464049,0.18662388391681015
1687693630891855000,5.592855224609375,-0.536409308424592,0.33095439424440265,0.30224030440282074
1687693630901819000,5.60281884765625,0.08328560145199299,0.3725193074285984,0.49405174702536314
1687693630911783000,5.612782958984375,0.37571547312140463,0.3031087943330407,0.47574477716870606
1687693630921746000,5.622745849609375,0.08605272807776927,0.17323182983696458,0.19663404047340152
1687693630931710000,5.6327099609375,-0.36130993115007876,0.10489289149567484,0.07066679676696658
1687693630941674000,5.642674072265625,-0.3245207079350948,0.14779621367678045,0.1425549885550514
1687693630951636700,5.65263671875,-0.03029752310812473,0.15866364464983343,0.2775909432495013
1687693630961601000,5.66260107421875,0.07523381242156028,0.12909063642397522,0.1904770522136241
1687693630971565000,5.67256494140625,-0.1974573395550251,0.05321326540187001,-0.011100289880856871
1687693630981527800,5.68252783203125,-0.6871919905662536,0.019579729738831517,-0.02522361737731844
1687693630991491800,5.692491943359375,-0.9151970285981893,0.07835632835626602,0.22425587809886782
1687693631001454800,5.702454833984375,-0.5190139369875192,0.17454510439261792,0.4038043437367305
1687693631011419000,5.7124189453125,0.02110240926146507,0.17414821402952074,0.3823365717615932
1687693631021383000,5.7223828125,0.34423429318666454,0.11529212043508887,0.2465047174490988
1687693631031346000,5.732345947265625,0.3537847963422537,0.11758300785124301,0.17913842353224754
1687693631041310000,5.74231005859375,0.1308060620397329,0.16251725133806466,0.2742792614182457
1687693631051273700,5.752273681640625,-0.049537645629048346,0.17865268584191799,0.3485815651433542
1687693631061236700,5.76223681640625,-0.05542962627708912,0.1727018146134913,0.29591362213194367
1687693631071200800,5.77220068359375,-0.007666004583239555,0.13217369713112712,0.24759265881627796
1687693631081164800,5.782164794921875,-0.27661680098772046,0.07620704136788845,0.2546942344497889
1687693631091127800,5.7921279296875,-0.8005477361112833,-0.00447948350161314,0.22222605277169494
1687693631101091800,5.802091796875,-1.023856725281477,-0.007665420061349868,0.10944280988499522
1687693631111056000,5.812055908203125,-0.7893442050516605,-0.03495353222042322,0.007606310285255312
1687693631121019000,5.822018798828125,-0.4732353516310453,-0.07918664170056582,0.08563950763437897
1687693631130983000,5.83198291015625,-0.1722825662881136,-0.05784764720425009,0.03500822154972702
1687693631140947000,5.841947021484375,-0.03513385722339153,-0.09673530400320887,-0.09040372636150568
1687693631150910000,5.851909912109375,-0.10917816759943962,-0.1256480947546661,-0.1084240247638896
1687693631160874000,5.8618740234375,-0.4018126219302416,-0.0978156465858221,-0.01422539963144809
1687693631170837800,5.871837646484375,-0.464714776045084,-0.049075288814306256,-0.06500807688552886
1687693631180801000,5.881801025390625,-0.2596960613250732,0.00761938896253705,0.021555742519535123
1687693631190764800,5.891764892578125,0.0169184015750885,0.07329568396583198,0.10566343747675418
1687693631200728800,5.901728759765625,0.03506955981552601,0.11032587632983923,0.00770728644169867
1687693631210691800,5.91169189453125,-0.4966115510433912,-0.02305807337388396,-0.1081930655522272
1687693631220655900,5.92165576171875,-0.9766957456558942,0.006099047527462244,-0.044125484387204046
1687693631230620000,5.931619873046875,-0.8357628418773412,0.13559110435917973,0.03677059157975018
1687693631240583000,5.9415830078125,-0.14036357945799827,0.16881167530715466,0.10281341834049672
1687693631250547000,5.951546875,0.5952215628772973,0.20920111497119068,0.21087529526110738
1687693631260511000,5.961510986328125,0.8086965557754039,0.13758125526309012,0.052057081104069945
1687693631270474000,5.971473876953125,0.167315299269557,0.006896335384994745,-0.049607788255810734
1687693631280438000,5.98143798828125,-0.649538843998313,-0.01822889965176582,-0.0008467530224472284
1687693631290401000,5.991401123046875,-0.7180740355640649,0.13996113613694905,0.1244580081872642
1687693631300365000,6.001364990234375,-0.04529810836315155,0.2277175993926823,0.1858006944330409
1687693631310329000,6.0113291015625,0.6411123764365911,0.22748291385397312,0.31315109959356485
1687693631320292000,6.0212919921875,0.9821142635732889,0.23747166229635475,0.30152210966348647
1687693631330256000,6.031255859375,0.6748661774784326,0.16501768985167145,0.31257370156440883
1687693631340220000,6.041219970703125,0.05640285522341728,0.15124547734782098,0.2997485971849412
1687693631350183000,6.051182861328125,-0.29641572643518443,0.15176716313436628,0.3501226571055129
1687693631360147000,6.06114697265625,0.000751110628247261,0.18198738322257996,0.37738293140958995
1687693631370111000,6.071111083984375,0.4526853155553341,0.21691168934851884,0.45982510430738327
1687693631380074000,6.081073974609375,0.6143149704039097,0.1951635295294225,0.48297721264027055
1687693631390038000,6.0910380859375,0.2392851414591074,0.12530337297022343,0.39775804930981246
1687693631400002000,6.101001953125,-0.38678514866828917,0.07443857039064168,0.4005746776331216
1687693631409964800,6.11096484375,-0.5709750103712081,0.07881400899589061,0.4072351584356278
1687693631419928800,6.1209287109375,-0.00045358898639678955,0.14389569910690186,0.4431889172071591
1687693631429893000,6.13089306640625,0.7617056720197201,0.17101736865788697,0.4922054250389337
1687693631439855900,6.14085595703125,1.2102858903437852,0.12701178432330487,0.1948090900685638
1687693631449820000,6.15081982421875,1.0592945338875055,0.0005013736508786679,-0.04774721854832023
1687693631459783700,6.16078369140625,0.40169864016175266,-0.02914513820260763,-0.05352704405877739
1687693631469747000,6.170746826171875,-0.04203530717492103,0.12644435969889165,0.06862038563117384
1687693631479710700,6.180710693359375,0.3004290537297726,0.3065982438839972,0.20031086582262067
1687693631489674800,6.1906748046875,0.8421884910106658,0.28146847880259157,0.23409732702504843
1687693631499637800,6.2006376953125,0.8553139300435781,0.13275515028089285,0.0702024671908468
1687693631509601800,6.210601806640625,0.3510077328443527,0.06931582054942846,0.06343384983874857
1687693631519565800,6.22056591796875,-0.20389584816992282,0.10533566682711243,0.2838201564952731
1687693631529528800,6.23052880859375,-0.4320575380682945,0.17640899856835604,0.44424368695709854
1687693631539492900,6.240492919921875,-0.3726327046751976,0.15570947101935742,0.3981874902356416
1687693631549457000,6.250456787109375,-0.2468798343718052,0.06838409265726804,0.34341994459647684
1687693631559420000,6.260419921875,-0.18601298547685144,0.0835151724241674,0.36350258235614746
1687693631569384000,6.270384033203125,-0.222331084048748,0.13316884564831852,0.41891193303018803
1687693631579347000,6.280346923828125,-0.21664602414965628,0.13849544749855994,0.41773496167268603
1687693631589311000,6.29031103515625,-0.14377718729376793,0.12293459801226854,0.35062673417013135
1687693631599274800,6.300274658203125,-0.10796353111267089,0.08749474357962608,0.3088285967519507
1687693631609238000,6.310238037109375,-0.31412264803946016,0.0430989908836782,0.3302229746973142
1687693631619201800,6.320201904296875,-0.4832663317799568,0.03725800977051258,0.34868915370367465
1687693631629165800,6.330165771484375,-0.5624257932126522,0.03679492230340838,0.3733125766981393
1687693631639128800,6.34012890625,-0.6711497873038053,-0.0013999299257993697,0.39191973507776856
1687693631649092900,6.3500927734375,-0.736418086028099,-0.011348200227320193,0.47122576537430283
1687693631659057000,6.360056884765625,-0.5480950700432062,0.021377719071507453,0.5771173855837434
1687693631669020000,6.37002001953125,-0.24130466458797453,0.08618176128491759,0.5922478808287531
1687693631678984000,6.37998388671875,-0.049534723019599915,0.05189765275865793,0.571509044182673
1687693631688948000,6.389947998046875,-0.003212532305717468,-0.005391483779996633,0.5545487031619996
1687693631698911000,6.399910888671875,0.04895604634881019,0.03164572284668684,0.6353718600232153
1687693631708875000,6.409875,0.2105196502238512,0.09286153130978346,0.7413368377298116
1687693631718839000,6.419839111328125,0.40098786154389376,0.10457549610957503,0.8351356498897076
1687693631728802000,6.429802001953125,0.48595688603818415,0.049388446416705846,0.8355513910837471
1687693631738766000,6.43976611328125,0.3753139065831899,-0.03678235508278012,0.812543148200959
1687693631748729900,6.449729736328125,0.1188730476617813,-0.04812178748175502,0.8579508544184267
1687693631758692900,6.45969287109375,-0.13196926060020922,-0.0522572798512876,0.894841053789854
1687693631768657000,6.469656982421875,-0.26738544678390025,-0.09169438722655177,0.8228791757110506
1687693631778621000,6.479620849609375,-0.2419207506597042,-0.09491086505502462,0.6852046161413192
1687693631788584000,6.489583984375,-0.1904816553235054,-0.10652867600396275,0.6190540546897798
1687693631798548000,6.4995478515625,-0.08382628419995307,-0.10809650984257459,0.6179552996676415
1687693631808512000,6.509511962890625,0.03415010688304901,-0.043820875417441126,0.5808034536853433
1687693631818475000,6.51947509765625,0.06933247942328452,-0.019127309796214104,0.5055402690388262
1687693631828439000,6.52943896484375,0.09875848039388656,0.006146247670054435,0.5151579922117293
1687693631838403000,6.539403076171875,0.16480536227524278,0.10402794522941113,0.595961713720113
1687693631848366000,6.549365966796875,0.24283494289517402,0.16512480348795652,0.6533129557095467
1687693631858330000,6.559330078125,0.2934650599360466,0.13633242424577474,0.6317514045037329
1687693631868292900,6.56929296875,0.2786895156085491,0.11991539632156491,0.593130216621235
1687693631878257000,6.5792568359375,0.3330734322249889,0.15988281118124723,0.6804324333034455
1687693631888221000,6.589220947265625,0.3601198445826769,0.14805471848249435,0.8306486406687646
1687693631898184000,6.599183837890625,0.2330453702867031,0.19328662974163888,0.9251860693015158
1687693631908147700,6.609147705078125,0.09657529113590717,0.27479923017174,0.912691183257103
1687693631918111700,6.61911181640625,0.057901569348573684,0.27025194213092324,0.8573913208395242
1687693631928074800,6.62907470703125,0.2001145760655403,0.32737112893015147,0.9511612722311168
1687693631938038800,6.639038818359375,0.5672141965329647,0.3838338976472616,1.0426496885567902
1687693631948002800,6.6490029296875,0.8326882567375898,0.3354616425357759,1.0060507272168993
1687693631957965800,6.6589658203125,0.7617395742893218,0.19514906261265277,0.920099559817463
1687693631967929900,6.668929931640625,0.19178513913750647,0.014120003028213977,0.8372144289251416
1687693631977894000,6.678893798828125,-0.46972529768347737,-0.047474867880344385,0.816300016516447
1687693631987857000,6.68885693359375,-0.8699930282592773,0.014331015430390833,0.8993217063352466
1687693631997821000,6.698821044921875,-0.8039823867350816,0.10162103021815419,1.0010654861502348
1687693632007785000,6.708784912109375,-0.592775338768959,0.0741267279624939,1.0097771273288876
1687693632017748000,6.718748046875,-0.5515051707476377,-0.07629939582645892,0.9431137209843844
1687693632027711700,6.728711669921875,-0.6038420917063951,-0.15215835440903902,0.9228346838697791
1687693632037675800,6.73867578125,-0.4868073653876781,-0.09925240139067172,0.9762865072678774
1687693632047638800,6.748638671875,-0.07760930938124656,0.04977890703901648,0.9935395476248114
1687693632057602800,6.758602783203125,0.46279345259368415,0.14733765625432133,0.939581309074536
1687693632067566800,6.76856689453125,0.9082833036869764,0.14330606265068052,0.9114896254476159
1687693632077529900,6.77852978515625,1.1154518899172543,0.1390155258499086,0.949636766077578
1687693632087494000,6.788493896484375,1.0570493853092193,0.19399463188052177,1.0798851211693137
1687693632097458000,6.7984580078125,0.8968693447470665,0.240098065277189,1.1419896221004426
1687693632107421000,6.8084208984375,0.6502285798281431,0.24511837765723465,1.1345458819657563
1687693632117385000,6.818385009765625,0.27292320716679097,0.24129136671498416,1.1417580053016543
1687693632127349000,6.828348876953125,-0.20131986020207404,0.2117693580240011,1.1959312748420983
1687693632137312000,6.83831201171875,-0.6288987915515899,0.1348746266528964,1.1590991623334586
1687693632147276000,6.848276123046875,-0.9520283373892306,0.04472030847519636,1.0756456569686532
1687693632157239800,6.85823974609375,-1.0971329738944768,-0.03213467540740966,0.9732672325119376
1687693632167203000,6.868203125,-1.0149404283761978,-0.08181216789856553,0.8676770064018666
1687693632177166800,6.878166748046875,-0.7008242100775242,-0.1265676938176155,0.7597165440291166
1687693632187131000,6.888130859375,-0.2544002930045128,-0.20145020858347415,0.7248438950251788
1687693632197094000,6.898093994140625,0.08506137895286082,-0.27045374831333757,0.7681733336638659
1687693632207058000,6.908057861328125,0.16055413457155226,-0.36508009733855723,0.7671317887216806
1687693632217021000,6.91802099609375,0.1389724173605442,-0.3062541066214442,0.8246849099587649
1687693632226985000,6.92798486328125,0.18471417783796787,-0.17419877517297863,0.925646380289644
1687693632236949000,6.937948974609375,0.22354805862307547,-0.037545594540238376,1.0539130600448696
1687693632246912000,6.947912109375,0.17999708618819713,0.008232114033401012,1.1209311250459402
1687693632256876000,6.9578759765625,0.02040098299384117,-0.0057956806667149065,1.0983045749571174
1687693632266840000,6.967840087890625,-0.16006605879366398,0.05036927414759993,1.1438310121834276
1687693632276803000,6.977802978515625,-0.22282909669876097,0.13061390046849847,1.141567305035144
1687693632286767000,6.98776708984375,-0.3477735732287168,0.14600290051922202,1.112042154539004
1687693632296731000,6.99773095703125,-0.6349807418137788,0.07539280237555504,0.9858138487435877
1687693632306694000,7.00769384765625,-0.8704881182998419,0.07125994035452604,0.9120390029586851
1687693632316658000,7.017657958984375,-0.8860504290908574,0.13432824481651187,0.8647091695722192
1687693632326622000,7.0276220703125,-0.6248357798963785,0.17415011372566222,0.8267215303529053
1687693632336584700,7.037584716796875,-0.22496143255233764,0.11228563209548592,0.742316058025509
1687693632346548700,7.047548828125,0.021052724900841712,-0.005592559310048819,0.6260313463564962
1687693632356513000,7.057512939453125,-0.10966916598677634,-0.1068402261711657,0.5801686629131436
1687693632366475800,7.067475830078125,-0.3952677303314209,-0.08929653230458498,0.6191866680935025
1687693632376439800,7.077439697265625,-0.4387275173515081,0.04418707838132977,0.6318601255752145
1687693632386403800,7.08740380859375,-0.24518179828226566,0.13161240998655557,0.6575289659693837
1687693632396366800,7.097366943359375,-0.12506839517056942,0.11079480901584028,0.7450142841335385
1687693632406331000,7.107330810546875,-0.32884032469987867,0.03463993622660637,0.7704640018843114
1687693632416295000,7.117294921875,-0.6765969467937946,0.002274666933715343,0.7361933373615145
1687693632426258000,7.1272578125,-0.8049462633311748,0.06344736690744757,0.6886524915728718
1687693632436222000,7.137221923828125,-0.6080939039319754,0.12033610595166683,0.6394676049042493
1687693632446185700,7.147185791015625,-0.23183248736560344,0.08616188754066824,0.6277061477009207
1687693632456148700,7.157148681640625,-0.010385784935951232,0.0037966158039867874,0.6328507440477609
1687693632466112800,7.16711279296875,-0.1640203493773937,-0.06630947834029793,0.6311760888338088
1687693632476076800,7.177076904296875,-0.41107612483799455,-0.053496904648840424,0.6060970310263335
1687693632486039800,7.187039794921875,-0.4394575851917267,0.025574586239457128,0.5636620204767212
1687693632496003800,7.19700390625,-0.14748013346493244,0.07842223319932817,0.574132561086677
1687693632505968000,7.206968017578125,0.30050737966299057,0.057904491958022115,0.6064862130070104
1687693632515931100,7.21693115234375,0.5470978756994008,-0.03403744028881192,0.6000341142581775
1687693632525895200,7.226895263671875,0.36233342897891996,-0.11402063919454812,0.5866586094543338
1687693632535859200,7.236859130859375,-0.0603103840559721,-0.22409897050410507,0.4402922824501991
1687693632545822200,7.246822265625,-0.19905016170442102,-0.13024974333122372,0.3915297859121114
1687693632555786200,7.2567861328125,0.05463876816034317,0.010627338606864213,0.4673736199907958
1687693632565750000,7.26675,0.4030377798110246,0.0367963836081326,0.4896035719774663
1687693632575713300,7.27671337890625,0.4260626815676689,-0.011780892556160688,0.48538273941203947
1687693632585677000,7.286677001953125,0.05919219368100166,-0.07172565817013382,0.4181277969151735
1687693632595641000,7.29664111328125,-0.3527624675571918,-0.007572188819944858,0.384949311543256
1687693632605604000,7.30660400390625,-0.4125830222696066,0.13760989683568478,0.43839152686279265
1687693632615568100,7.316568115234375,0.003920388314127922,0.3106295452266931,0.5405850962718949
1687693632625532200,7.3265322265625,0.49276247439980503,0.33629502461999655,0.5264500052724034
1687693632635495200,7.3364951171875,0.6376274569302797,0.31009266187101603,0.4219788828527555
1687693632645459200,7.346459228515625,0.3813473415285349,0.27554215749353167,0.3462058489879593
1687693632655423200,7.35642333984375,0.07784954787790775,0.31318419814556836,0.3512541453534737
1687693632665386200,7.36638623046875,0.06807517283856869,0.49271279003918167,0.42231173153631385
1687693632675350300,7.376350341796875,0.29940087972581386,0.6428973601572215,0.4256710519015789
1687693632685313300,7.386313232421875,0.6225374398261309,0.6510881192669272,0.3790590844608843
1687693632695277300,7.39627734375,0.721274292910099,0.5681783653900027,0.31688776537124064
1687693632705241000,7.406240966796875,0.4678980822563171,0.42274230497330423,0.2606097786365077
1687693632715204400,7.416204345703125,-0.026370705053210257,0.3050824324935674,0.22443216624753548
1687693632725168000,7.426168212890625,-0.5591285052329301,0.25351795721203085,0.2360536121919751
1687693632735132200,7.436132080078125,-0.8152221581518649,0.30858079600334165,0.23555812029261142
1687693632745095200,7.44609521484375,-0.7554290759682655,0.34987639072686433,0.3454733334623277
1687693632755059200,7.45605908203125,-0.5230681808143853,0.29260201336592434,0.4552941463468596
1687693632765023200,7.466023193359375,-0.37297815711200233,0.19777575785443186,0.4451682909887284
1687693632774986200,7.475986328125,-0.4790221183389425,0.08641162451803684,0.26484896884253245
1687693632784950300,7.4859501953125,-0.6501514229387044,0.09287497531324625,0.23991242477828637
1687693632794914300,7.495914306640625,-0.5178992537438869,0.24800050896480677,0.3300123641539365
1687693632804877000,7.505876953125,-0.04588146120905876,0.38685324546843763,0.43294787450414146
1687693632814841300,7.51584130859375,0.49385611485540865,0.37059228488877416,0.4184711304601282
1687693632824805400,7.525805419921875,0.8712234468370675,0.3586917114757001,0.4373047545393929
1687693632834768100,7.53576806640625,0.9185252962380647,0.28924641932770606,0.4606212231211364
1687693632844732200,7.545732177734375,0.6939367886513471,0.2669679520241916,0.4747278552111238
1687693632854696200,7.5556962890625,0.25657003825902935,0.2762551280684769,0.5883253370901569
1687693632864659000,7.565658935546875,-0.264933377456665,0.25272797587811946,0.613833032105863
1687693632874623000,7.575623046875,-0.6825321820616722,0.2435207332022488,0.6208585468284785
1687693632884587000,7.5855869140625,-0.9139309541851282,0.20984847296401857,0.6763765820413827
1687693632894550000,7.595550048828125,-0.9506050265878438,0.22792773501202462,0.7040866459395736
1687693632904514000,7.60551416015625,-0.8491787882894277,0.20726970851719378,0.7006704077553003
1687693632914478000,7.61547802734375,-0.5418272418200969,0.14899024576693773,0.566136813092418
1687693632924441000,7.625441162109375,-0.14457389062941073,0.16933058461472392,0.4930732573820278
1687693632934405000,7.635405029296875,0.34347149212062356,0.22238427554070947,0.5413142507966607
1687693632944369200,7.645369140625,0.7724222963452338,0.2520404320053756,0.5222547820722684
1687693632954332200,7.655332275390625,0.9458230530083179,0.25194530106782914,0.4801833441380411
1687693632964296200,7.665296142578125,0.6836199772983789,0.19160116087272763,0.37787232236173
1687693632974260000,7.675260009765625,0.02181786405444145,0.1675293804116547,0.37124439212195576
1687693632984223200,7.68522314453125,-0.6734031191885471,0.2499596802085638,0.47714573000781235
1687693632994187000,7.69518701171875,-1.0959674372464419,0.4071401005633175,0.4615209119072184
1687693633004151000,7.705151123046875,-1.1626403420716522,0.47185909484177824,0.3595439443908632
1687693633014114000,7.715114013671875,-0.9630512511849403,0.42768984437808394,0.24668964556194842
1687693633024078000,7.725078125,-0.6249813258469105,0.3899881824932992,0.14034519441793672
1687693633034042000,7.7350419921875,-0.24461773465871808,0.38623891296237706,0.11232386348033323
1687693633044005000,7.745005126953125,0.08156593805253505,0.40384982684627174,0.09421062609748915
1687693633053969200,7.75496923828125,0.27897067063748837,0.35417438018172975,0.08084061945267021
1687693633063933200,7.76493310546875,0.24709318486154078,0.3426674822613597,0.1882652944482863
1687693633073896200,7.774896240234375,0.051503392744064326,0.43156449385434387,0.3505215202299878
1687693633083860200,7.784860107421875,-0.163559161606431,0.5371981207147241,0.4239032750440761
1687693633093824300,7.79482421875,-0.1906938367694616,0.6021786885388195,0.4218370997618884
1687693633103787300,7.804787353515625,0.04103869735300541,0.6296320742622018,0.37092392799593504
1687693633113751300,7.814751220703125,0.4239572337210178,0.6959000515483319,0.3365050141088664
1687693633123715000,7.824715087890625,0.6840443401902914,0.728927291881293,0.3623147973436862
1687693633133678000,7.834677978515625,0.6152770934343338,0.7761394171722232,0.36287341760713604
1687693633143642000,7.84464208984375,0.37893443516790865,0.7485432619772852,0.3644338353242725
1687693633153606100,7.854606201171875,0.17266250551640985,0.7580532869920135,0.351996963077411
1687693633163569200,7.864569091796875,0.24611937139332293,0.8005299081936478,0.3502218796962872
1687693633173533200,7.874533203125,0.5494833095312118,0.8461283146776258,0.47568340237028894
1687693633183497200,7.884497314453125,0.7348381233602762,0.7802255174420774,0.5170926866013557
1687693633193460200,7.894460205078125,0.5841150624513626,0.64794499893561,0.5084835559491068
1687693633203424300,7.90442431640625,0.24741408737897871,0.6194974876083433,0.47522857127487655
1687693633213388300,7.91438818359375,0.04824526773095131,0.6935394598968326,0.4515448402833193
1687693633223351300,7.924351318359375,0.04694646009206772,0.8476239600628614,0.608905439510569
1687693633233315300,7.9343154296875,0.3454974449902773,0.9402994672812521,0.7486871274273842
1687693633243278300,7.9442783203125,0.6060644439309835,0.9247495775803923,0.7558851491726934
1687693633253241000,7.954240966796875,0.606236877888441,0.9232223680131136,0.7503501652687787
1687693633263204000,7.9642041015625,0.5928092410385608,0.8167208722770214,0.753681136322394
1687693633273168100,7.974168212890625,0.2571393625795841,0.7826753948122263,0.8042136382076889
1687693633283132200,7.984132080078125,-0.1801554916203022,0.8007501268155872,0.8058565100438893
1687693633293095200,7.99409521484375,-0.3838414964318275,0.83953242354393,0.7839522828802465
1687693633303059200,8.00405908203125,-0.32562253169715405,0.857416893672198,0.7767477583289146
1687693633313023000,8.01402294921875,-0.3853969091802835,0.8542363639399408,0.8294413837708532
1687693633322986200,8.023986328125,-0.6745996354967355,0.8102237653426826,0.8899297547422349
1687693633332950000,8.033949951171875,-0.9278677096009253,0.8243462525889277,0.9271450213495641
1687693633342914000,8.0439140625,-0.9905781405359506,0.8725313145652412,0.9218032219301908
1687693633352877000,8.053876953125,-0.9128945968747139,0.8957590454176068,0.8299135313272475
1687693633362841000,8.063841064453126,-0.760150259271264,0.9319390506930648,0.8020360749728978
1687693633372805000,8.07380517578125,-0.7364040575027465,0.8849876221649349,0.782522469272837
1687693633382768000,8.08376806640625,-0.8270160563200711,0.8821518142171204,0.7565605642162263
1687693633392732200,8.093732177734376,-0.9380109179526567,0.9208660141453147,0.6819081318791955
1687693633402696200,8.1036962890625,-1.086973983451724,0.9295008637607097,0.5407522329997271
1687693633412659200,8.1136591796875,-1.300966862744093,0.9727765263855457,0.3847439982295036
1687693633422623200,8.123623291015624,-1.4124907166868448,1.0338860979951918,0.2781219813862815
1687693633432587300,8.133587158203126,-1.247196694111824,1.0845404726944863,0.2355158337871544
1687693633442550300,8.14355029296875,-1.0285177028298378,1.1239419242344797,0.2573918029706925
1687693633452514000,8.15351416015625,-1.1543097360998391,1.1367910305440425,0.25752673619566485
1687693633462478000,8.16347802734375,-1.6483365313470362,1.1421285921797155,0.2593812232222408
1687693633472441000,8.173441162109375,-2.0584639771580693,1.1337836654216051,0.08582315710559486
1687693633482405000,8.183405029296875,-1.8639532124489544,1.2035355393007396,-0.0452413914735429
1687693633492369200,8.193369140625,-1.2003373277813196,1.1280119501523673,-0.027617307580821215
1687693633502332200,8.203332275390625,-0.48738019683957096,1.2118861651472748,0.20825250900946557
1687693633512296000,8.2132958984375,-0.22625907114744184,1.2861438260130584,0.5024572813969105
1687693633522260000,8.223260009765625,-0.3861562031149864,1.137679796077311,0.44537024330161507
1687693633532223000,8.233222900390626,-0.9627338557988405,1.0372840698704122,0.2563405220857821
1687693633542187000,8.24318701171875,-1.3741566021174192,0.9899659999869763,0.21117046054909006
1687693633552151000,8.253151123046875,-1.4037521144360303,0.9241884365662932,0.2519767191193998
1687693633562114000,8.263114013671874,-1.230461832410097,0.8844586298547684,0.392461586869508
1687693633572078000,8.273078125,-0.9293389511972665,0.8517989076599478,0.586888107361272
1687693633582041900,8.283041748046875,-0.5473679248124361,0.831027922309935,0.6743550130859017
1687693633592005000,8.293005126953124,0.045267128702998156,0.8720284796096384,0.6535718258414417
1687693633601969000,8.302968994140626,0.5952782615005969,0.9629789166010916,0.6266102422229946
1687693633611933000,8.312932861328125,0.8245780155181884,1.0182879852384328,0.7003244438618421
1687693633621895700,8.322895751953125,0.6478466531276702,1.0667742221184073,0.7252502838689834
1687693633631860000,8.33285986328125,0.30682606129050255,1.138877189168334,0.6461462058853358
1687693633641824000,8.342823974609376,0.25516952381134034,1.2752921771310268,0.6702744657739996
1687693633651786800,8.352786865234375,0.5612427209079265,1.3869560240663588,0.8595303056295961
1687693633661750800,8.362750732421874,0.8890297371625899,1.413556884613633,1.0095976060435174
1687693633671715000,8.372715087890626,0.7992197023779153,1.3365984403565525,0.9204629863023758
1687693633681677800,8.382677734375,0.13473404913842676,1.312507078412175,0.8170746541507542
1687693633691641900,8.392641845703125,-0.6032148997187614,1.3604744059845804,0.7170050180930644
1687693633701606000,8.40260595703125,-0.7013736606538296,1.520171923726797,0.6682525314923375
1687693633711569000,8.41256884765625,-0.43827743549644943,1.4661664850339293,0.7776847469180822
1687693633721533000,8.422532958984375,-0.2383130815565586,1.460044202761352,1.0104996694497763
1687693633731496700,8.43249658203125,-0.35927696401774883,1.3751741085968912,0.9916345177210867
1687693633741460000,8.4424599609375,-0.5441910483419895,1.2434987163767217,0.8282605034232139
1687693633751423700,8.452423828125,-0.40597383326292036,1.2362636505566538,0.8614940799832344
1687693633761387800,8.4623876953125,-0.05762333692908287,1.3074357664972542,0.9907171836804598
1687693633771350800,8.472350830078126,0.03398234910070896,1.3404318810395897,1.0349197518918662
1687693633781314800,8.482314697265625,-0.27710312319993974,1.267614920501411,1.0131822595972568
1687693633791278800,8.49227880859375,-0.842007289224863,1.204900105652213,0.8791421110071241
1687693633801241900,8.502241943359374,-1.1942705750882625,1.1767090533040463,0.8953448385935276
1687693633811206000,8.512205810546876,-1.0926479374349116,1.1445973203808069,1.013370548710972
1687693633821170000,8.522169921875,-0.9561001168727874,1.2017167994409799,0.998317941007763
1687693633831133000,8.5321328125,-1.0437480051875114,1.1635903362728655,0.9489561634022742
1687693633841097000,8.542096923828124,-1.3078566222578287,0.93399949035421,0.9750323424883186
1687693633851061000,8.55206103515625,-1.2531313448578119,0.8110646000809967,0.9930107014451175
1687693633861024000,8.56202392578125,-0.8028910843670368,0.7316415192760527,1.0231620210155845
1687693633870987800,8.57198779296875,-0.592499444437027,0.9215940361589193,0.9507151358988135
1687693633880951800,8.581951904296876,-0.3772358145564794,0.9836207226134837,0.8807271151762455
1687693633890914800,8.591914794921875,0.032359131813049315,0.9124035984873771,0.7764943680897355
1687693633900878800,8.60187890625,0.4894213472783565,0.8510821376927197,0.6988886389050633
1687693633910843000,8.6118427734375,0.8172913656413555,0.7954077428743243,0.6779897163264453
1687693633920806000,8.621805908203125,1.0265145463138818,0.7640623181484639,0.807946614190936
1687693633930770000,8.63177001953125,0.6439128208100795,0.6886749226003885,0.8743016852386295
1687693633940734000,8.64173388671875,-1.1512445033103227,0.6492531589247286,0.8827794445961713
1687693633950697000,8.651697021484376,-3.2264187922507523,0.6860314223542809,0.6820267167575657
1687693633960661000,8.661660888671875,-3.1445974181324243,0.8248857662931084,0.16421134190484882
1687693633970625000,8.671625,-1.1840034480959176,0.9004119857899844,0.12871741919741034
1687693633980588000,8.681588134765626,0.49873044289350504,0.9161712804578244,0.8784973833627998
1687693633990552000,8.691552001953125,1.4726730904489755,1.0930981654204428,0.8284457237970083
1687693634000515800,8.701515869140625,1.5068904173493385,1.190856674991548,0.46250974028147757
1687693634010478800,8.711478759765624,0.9329360989063977,1.0924877784371376,0.3908478680625558
1687693634020443000,8.72144287109375,0.24839023893475531,1.038170205055177,0.25982284777620807
1687693634030407000,8.731406982421875,0.08010287976264953,1.176055703961849,0.2868569121089764
1687693634040370000,8.741369873046875,0.39538755731880665,1.3540956647329032,0.6196579388670623
1687693634050334000,8.751333984375,0.7760451630175114,1.5318125310294328,0.9925320510827005
1687693634060298000,8.761298095703125,0.7507645912885665,1.5949853187792002,1.2095231623429805
1687693634070261000,8.771260986328125,0.2506681207388639,1.5125478585891425,1.2431783983811735
1687693634080225000,8.78122509765625,-0.3449211064070463,1.5212340000003575,1.1279874002330004
1687693634090189000,8.79118896484375,-0.4703840538531541,1.715607694326341,0.9561394990351051
1687693634100152000,8.801152099609375,0.013687749090790747,1.7453714028187095,0.9987328054189681
1687693634110116000,8.8111162109375,0.8159685926049948,1.6828502108454704,1.0781382044367491
1687693634120080000,8.821079833984374,1.3928747465908526,1.5930324311457573,1.1376491086781024
1687693634130043000,8.83104296875,1.4239146124988793,1.4852151766359805,1.1507913527153433
1687693634140007000,8.8410068359375,1.0298118342936038,1.3885605366535485,1.263649524001777
1687693634149971000,8.850970947265624,0.39526539224386215,1.3374242236562073,1.3423415140531956
1687693634159933700,8.86093359375,-0.08754208985269069,1.3836577131733296,1.3805224838875234
1687693634169897700,8.870897705078125,-0.1159971999645233,1.428029354341328,1.4575027015849946
1687693634179862000,8.880862060546875,0.1663514226734638,1.4105308147907256,1.6260460813447832
1687693634189824800,8.89082470703125,0.3665846566826105,1.3187291677974164,1.7651953165769576
1687693634199788800,8.900788818359375,0.26634850495159623,1.2043126611530781,1.732025160641968
1687693634209752800,8.9107529296875,-0.06891337722837924,1.1229736637242138,1.520725758217275
1687693634219715800,8.9207158203125,-0.26779110497534275,1.1208058181658387,1.2752839938245712
1687693634229679900,8.930679931640626,-0.19366905318796634,1.2123030753850936,1.2416922514766453
1687693634239644000,8.940643798828125,0.010668693530559539,1.2043198215462267,1.3502505336120725
1687693634249607000,8.95060693359375,0.14744856928288935,1.1399115006521343,1.3398128723584115
1687693634259571000,8.960571044921876,0.2546604052454233,1.094014988004416,1.2390278545729816
1687693634269534700,8.97053466796875,0.33427170209884643,1.0698178275980055,1.1172947413049639
1687693634279498000,8.980498046875,0.17518413294851778,1.0522720879048109,1.095464675356075
1687693634289461800,8.990461669921874,-0.21416706681549547,1.0465182005532085,1.1263031004078685
1687693634299425800,9.00042578125,-0.7082306869417428,1.0409354319848119,1.1174085769429802
1687693634309388800,9.010388916015625,-1.2051257311016321,1.0076561165869236,1.0749433539181947
1687693634319352800,9.020352783203125,-1.4791916785627603,1.0351337599687278,0.9647751523680984
1687693634329316900,9.03031689453125,-1.323656248936057,1.1104985052935779,0.7708611114431172
1687693634339280000,9.04027978515625,-0.8527256671160459,1.1399657150574027,0.6569268353577703
1687693634349244000,9.050243896484375,-0.3278770326256752,1.0882824357017875,0.684983447671309
1687693634359208000,9.0602080078125,-0.22018588871359823,0.963041460443288,0.7590379141151905
1687693634369171000,9.0701708984375,-0.8501011638313531,0.7829594724506139,0.7125029574334621
1687693634379135000,9.080135009765625,-2.229920614016056,0.7791402064234018,0.6006015388825908
1687693634389099000,9.09009912109375,-3.2047955739855762,0.9189021667264401,0.48159854469820856
1687693634399062000,9.10006201171875,-2.7189970933794974,1.0113498565383254,0.4206655352318659
1687693634409025800,9.11002587890625,-1.5365870519548654,0.8712447818860412,0.721590007795766
1687693634418989800,9.11998974609375,-0.6313134514778852,0.7260096508689224,0.988248601609841
1687693634428952800,9.129952880859374,-0.32594518778026105,0.6541013296082615,0.9011365006722509
1687693634438916900,9.139916748046875,-0.6522720683544874,0.5931660916522145,0.8169505163144319
1687693634448881000,9.149880859375,-1.2230910113811493,0.6760946963600813,0.7701623155239969
1687693634458844000,9.159843994140624,-1.4371855974823236,0.8995759733572601,0.7461097512200474
1687693634468808000,9.169807861328126,-0.9621247839897871,0.994872622859478,0.8120017348006368
1687693634478772000,9.17977197265625,-0.37094694354534147,0.9857844765186309,1.0426142519172281
1687693634488735000,9.18973486328125,-0.13683540533185004,1.0019934146501124,1.1939248303905128
1687693634498699000,9.199698974609374,-0.2819353656619787,0.9455541729390621,1.1189183239188045
1687693634508663000,9.2096630859375,-0.6995125429570674,0.9998673624068498,0.9298834333375096
1687693634518625500,9.21962548828125,-1.028573232409358,1.1266568822816014,0.8120012233439833
1687693634528589600,9.229589599609374,-0.7467080093741416,1.1980236440114675,0.8188451709546148
1687693634538553600,9.2395537109375,-0.06481880139112473,1.213760580717027,0.9634984834957867
1687693634548516600,9.2495166015625,0.47307227002382274,1.185357639183849,0.9829047563638538
1687693634558480400,9.25948046875,0.447273227378726,1.0092344718195498,0.9255869051873683
1687693634568444400,9.2694443359375,0.011789806514978409,0.8866432804174721,0.8855890221241861
1687693634578407400,9.279407470703125,-0.6318851138859987,1.0149711157754062,0.7641957352697849
1687693634588371500,9.289371337890625,-0.8634878841489553,1.1695989290378987,0.675757354164496
1687693634598335500,9.29933544921875,-0.292949511629343,1.2246614755682645,0.7599972606666385
1687693634608298500,9.309298583984376,0.3736737381607294,1.1816595153182745,0.8618490309007465
1687693634618262500,9.319262451171875,0.6799129394739866,0.9957223715566098,0.7533999082282186
1687693634628226600,9.3292265625,0.4639899689018726,0.8001417856588959,0.72904478078112
1687693634638189600,9.339189453125,-0.1294692604780197,0.7826058367073535,0.6833655641458928
1687693634648153600,9.349153564453125,-0.6126297937959432,0.8826685315676033,0.4921994702221825
1687693634658117600,9.35911767578125,-0.5323088873684406,0.9699139765612781,0.4502027780245989
1687693634668080600,9.36908056640625,-0.12709200995266437,1.0114788897454738,0.5514707570213824
1687693634678044700,9.379044677734376,0.2987134819835424,1.0064170763112603,0.5933054270576685
1687693634688008400,9.389008544921875,0.6596434739053249,0.9967929233975708,0.5525607442151754
1687693634697971500,9.398971435546875,0.8386603168845176,0.9602046295821666,0.4843571226913482
1687693634707935500,9.408935546875,0.8817787431210279,0.9049841160111128,0.46029469458051026
1687693634717899500,9.4188994140625,0.6533949349045753,0.8831257738158106,0.3899212547369301
1687693634727862500,9.428862548828125,0.1586351492077112,0.8812491662889719,0.26330866233166306
1687693634737826600,9.43882666015625,-0.24119009829759597,0.8868081155903637,0.2072103795453906
1687693634747790600,9.44879052734375,-0.3904641294419765,0.9140065036393702,0.26112196594234555
1687693634757753600,9.458753662109375,-0.4048299239248037,0.8955928950704634,0.37313652601148933
1687693634767717600,9.468717529296875,-0.37033085747361183,0.8520805010803043,0.4127051873445511
1687693634777681700,9.478681640625,-0.35330665743649003,0.8598610719539225,0.3638591407088563
1687693634787644700,9.488644775390625,-0.2767909885108471,0.8849342845425009,0.2446454629158601
1687693634797608700,9.498608642578125,0.06358779829144477,0.907209829236567,0.1789586465185508
1687693634807572500,9.508572509765624,0.4526578430265188,0.9366755776956677,0.19991295254621655
1687693634817535700,9.51853564453125,0.6242302152186632,0.8448309683434665,0.2283664186902344
1687693634827499500,9.52849951171875,0.3925637320697307,0.7367666072048247,0.3615773133819923
1687693634837463600,9.538463623046875,-0.2292594220072031,0.7054584457494318,0.5356510008705779
1687693634847426600,9.548426513671876,-0.9064356299936771,0.7245935004606843,0.515600840608403
1687693634857390600,9.558390625,-1.2038099723279476,0.7896404115192591,0.45094881061892955
1687693634867354600,9.568354736328125,-0.9702385323405265,0.7665797077968716,0.5493734194159507
1687693634877317600,9.578317626953124,-0.648749739447236,0.7224611646071076,0.7071403344217687
1687693634887281700,9.58828173828125,-0.4696194992214441,0.6824507873885333,0.7163346445508301
1687693634897245700,9.59824560546875,-0.4037222549438476,0.6843303175248205,0.6102942635204642
1687693634907208700,9.608208740234375,-0.24828034881949423,0.7305576695621013,0.4751613877901807
1687693634917172700,9.6181728515625,0.08700900588929653,0.8162539854176342,0.3823953527441248
1687693634927136800,9.62813671875,0.5612275233387947,0.891553118160367,0.4222552521087229
1687693634937099500,9.638099609375,0.8608826700866222,0.8336075635395943,0.4638419022006914
1687693634947063800,9.648063720703124,0.8046341286420822,0.7632089161895215,0.5660897956129163
1687693634957027600,9.658027587890626,0.35982816815972324,0.6878219590328634,0.6226852507989853
1687693634966990600,9.667990478515625,-0.41736967202425,0.6152661336489021,0.6463154980376362
1687693634976954400,9.677954345703125,-1.150363628822565,0.6281964885011315,0.5873811150426045
1687693634986918700,9.687918701171874,-1.4682599501818419,0.7025076331198216,0.5662247105715796
1687693634996881400,9.69788134765625,-1.2299234877496956,0.6736575323410332,0.5540330087248235
1687693635006845400,9.707845458984375,-0.7416103939741849,0.5593183287166059,0.48580326637905086
1687693635016809500,9.7178095703125,-0.4633335508197546,0.4805246318563819,0.36665984081067143
1687693635026772500,9.7277724609375,-0.3633049043595791,0.4252897974990308,0.19540804234240203
1687693635036736500,9.737736572265625,-0.23282032935917377,0.507635926143825,0.11194288307242095
1687693635046700500,9.747700439453125,0.0452566073089838,0.5538892894051969,0.07065605617724359
1687693635056663600,9.75766357421875,0.4172872544378042,0.5553710523955524,0.06786613319776952
1687693635066627600,9.767627685546875,0.5931342352092266,0.5099973945781588,0.12075005704741924
1687693635076591600,9.777591552734375,0.4038859210729599,0.40010011892393227,0.17133743092510847
1687693635086554600,9.7875546875,-0.07702303392589092,0.41965369130820035,0.26553934399317947
1687693635096518400,9.797518310546875,-0.5403372955232858,0.5135151934407651,0.2748406946932897
1687693635106482400,9.807482421875,-0.6872410904049873,0.5974057750485837,0.22645207296889275
1687693635116445400,9.817445556640624,-0.3575596387058496,0.5979128477878868,0.25770408379025755
1687693635126409500,9.827409423828126,0.21850889541208743,0.5788876831918954,0.32774189847130325
1687693635136373500,9.83737353515625,0.5469885701060295,0.5790938732884824,0.4080968898314982
1687693635146336500,9.84733642578125,0.34984278071820735,0.5299496108911931,0.3990227720160037
1687693635156300500,9.857300537109374,-0.20761165382266045,0.5013075999051332,0.3165256175279617
1687693635166264600,9.8672646484375,-0.6639823798924684,0.5322127335175871,0.23018194367960093
1687693635176227600,9.8772275390625,-0.6450649134546518,0.5885711650773883,0.23791860234625636
1687693635186191600,9.887191650390625,-0.14845043980181216,0.6467220330119132,0.35896512158960103
1687693635196155600,9.89715576171875,0.39492636954784394,0.6139275785215199,0.4259028148308396
1687693635206118700,9.90711865234375,0.6772369982630014,0.5305684734418988,0.37394291049093004
1687693635216082700,9.917082763671875,0.6391027901798486,0.38860301174521444,0.28114403262119736
1687693635226046500,9.92704638671875,0.28352409615814683,0.3627354339085519,0.2667483909893781
1687693635236009500,9.937009521484375,-0.021148586490750312,0.4544906844768673,0.3162485906848684
1687693635245973500,9.946973388671875,-0.19320377376377582,0.5608966108839959,0.37919246504958715
1687693635255937500,9.9569375,-0.16679098313450813,0.6651025430288166,0.39557248543165624
1687693635265900500,9.966900634765626,0.053395490100979805,0.6938221492957324,0.3912477175677195
1687693635275864600,9.976864501953125,0.46837096046507354,0.7634946012631059,0.40623942539654667
1687693635285828600,9.98682861328125,0.8786778544962406,0.8458549045637249,0.43997192792203277
1687693635295791600,9.99679150390625,1.1718979997605086,0.8335632860064506,0.4603492377793416
1687693635305755600,10.006755615234376,1.065761684074998,0.7050941424816847,0.4346416728099808
1687693635315719700,10.0167197265625,0.3576654371678829,0.5215744351252913,0.4603672848926857
1687693635325682700,10.0266826171875,-0.8227893785357475,0.39995742251761257,0.5626733017003164
1687693635335646700,10.036646728515626,-1.8694488872557877,0.3713683838278055,0.5714121596794575
1687693635345610500,10.046610595703125,-2.251581241682172,0.40057504295930263,0.4540318347934633
1687693635355573800,10.05657373046875,-1.8122247787773609,0.4405624776937067,0.5306221033252775
1687693635365537500,10.06653759765625,-0.863587252870202,0.3475628530874848,0.6667297058392315
1687693635375501600,10.07650146484375,0.09631167176365851,0.23005641760379075,0.719902566165477
1687693635385464600,10.086464599609375,0.727536860436201,0.16442001621946692,0.6479572738952935
1687693635395428600,10.0964287109375,0.9339379694253206,0.11273498329818248,0.5509499480176717
1687693635405392600,10.106392578125,0.859613088542223,0.11971154431253671,0.4969068076629191
1687693635415355600,10.116355712890625,0.5996300269693136,0.123036304821074,0.5160833634283394
1687693635425319700,10.126319580078125,0.17847557570934294,0.113302846314013,0.6094004564858972
1687693635435283700,10.13628369140625,-0.2562204941689968,0.13769859803244472,0.7911034698091447
1687693635445246500,10.14624658203125,-0.5352005171567201,0.11941066166982053,0.9340295932315289
1687693635455210800,10.156210693359375,-0.6296405498296022,0.03799713770002126,0.9165151985246688
1687693635465174800,10.1661748046875,-0.5706576149851084,-0.04295212975889444,0.8746499141544103
1687693635475137500,10.176137451171876,-0.6240396610826253,-0.11338482550904154,0.9194134772494434
1687693635485101600,10.1861015625,-0.8767097692936658,-0.20522592772990464,0.9505023699309676
1687693635495065600,10.196065673828125,-1.181975741660595,-0.27818419643491504,0.8925053043186664
1687693635505028600,10.206028564453124,-1.3490934725314379,-0.3638505555436015,0.7852218644246458
1687693635514993000,10.215992919921876,-1.2461013000905512,-0.4478095262125134,0.7455064515646547
1687693635524957000,10.22595703125,-0.9871955123603343,-0.5222286612503231,0.8450537442486733
1687693635534920000,10.235919921875,-0.8491735275924205,-0.6265003521077335,0.9801596954394132
1687693635544884000,10.245884033203126,-0.8016285170853138,-0.6866159442439675,1.1149824457745998
1687693635554848000,10.255847900390625,-0.7363251470476389,-0.7138112635530531,1.0731758327890186
1687693635564811000,10.26581103515625,-0.56000528806746,-0.6729862089507281,0.9178823221594095
1687693635574775000,10.275775146484374,-0.28321488407850265,-0.5916879819236696,0.8457571432776748
1687693635584739000,10.285739013671876,-0.029379239219427106,-0.5152027081362903,0.8694120865661651
1687693635594702000,10.2957021484375,0.07872983784377574,-0.4447913474351167,0.9674348730966448
1687693635604666000,10.305666015625,-0.02773205653429031,-0.432563003372401,0.9666286712802946
1687693635614630000,10.3156298828125,-0.2583171741873026,-0.41100729738548397,0.980887425192073
1687693635624593000,10.325593017578125,-0.5304238042742013,-0.37922947259172796,1.0125618626765907
1687693635634557000,10.335556884765625,-0.6266933904618024,-0.26829949288889765,1.0069874235451222
1687693635644521000,10.34552099609375,-0.4935311206847429,-0.18729162711054084,0.9001189211275428
1687693635654484000,10.35548388671875,-0.2701151640087366,-0.17401845017001033,0.7949540077574551
1687693635664448000,10.365447998046875,-0.06004676468372345,-0.22931100606396793,0.7619689260657876
1687693635674412000,10.375412109375,0.04577215561568737,-0.30998890923559663,0.6964588544748723
1687693635684375000,10.385375,-0.006710311293601989,-0.4101933506540954,0.6869464913725852
1687693635694339000,10.395339111328125,-0.16032091033756732,-0.4015057479381561,0.710485187870264
1687693635704303000,10.40530322265625,-0.17868074289262292,-0.304913505667448,0.6592917378582059
1687693635714266000,10.41526611328125,-0.031924247527122494,-0.22950404441803693,0.5550665895562619
1687693635724230100,10.425230224609376,0.3385626772910356,-0.21474822770431637,0.47890090311206873
1687693635734194000,10.43519384765625,0.7023959894388914,-0.1935249685421586,0.45488947453610595
1687693635744157200,10.4451572265625,0.8265899398624896,-0.20597849966287612,0.509271710652113
1687693635754121000,10.455120849609376,0.7268354341685771,-0.25715865180194375,0.5963657279437408
1687693635764085000,10.4650849609375,0.5259995580911636,-0.18320318875312805,0.5600673569856212
1687693635774048000,10.475048095703125,0.3625789281725883,-0.062091714514791965,0.39836949573904273
1687693635784012000,10.485011962890624,0.4286024291783571,0.004239537265896797,0.4087467320423573
1687693635793976000,10.49497607421875,0.6902922946691513,0.0920915698505938,0.5172885744996368
1687693635803939000,10.50493896484375,0.9122557144492864,0.1650895860441029,0.5855289478372782
1687693635813903000,10.514903076171874,1.0347995595782995,0.13503639308586715,0.6639365679893642
1687693635823867100,10.5248671875,1.0171902531296013,0.08743424556404351,0.652200172162056
1687693635833830100,10.534830078125,0.8938789307594299,0.07434037071317434,0.5584557936031371
1687693635843794200,10.544794189453125,0.8145750924199819,0.11982362638488411,0.6495407436944544
1687693635853758200,10.55475830078125,0.773140089225769,0.18422332558110355,0.7822718555126339
1687693635863721200,10.56472119140625,0.6970131273567676,0.2048565098956227,0.7984508368972688
1687693635873685200,10.574685302734375,0.5886959605008364,0.13833733432739972,0.7503489962249994
1687693635883649000,10.58464892578125,0.4879506902039051,0.04825228199362754,0.6904971695914864
1687693635893612000,10.594612060546876,0.49463878966569896,0.018123539581149817,0.6196150495734065
1687693635903576000,10.604576171875,0.5525310066640376,-0.00712853670567274,0.5696734262533486
1687693635913540000,10.6145400390625,0.5476584321916103,-0.052562400277703994,0.4953326171487569
1687693635923502800,10.6245029296875,0.40601825692653654,-0.07504442732930183,0.3850898159924894
1687693635933467100,10.634467041015625,0.20690029068291185,-0.14178119117096066,0.31096509732399136
1687693635943431200,10.64443115234375,0.10365092861056327,-0.12279095175787806,0.3392327585723251
1687693635953394000,10.654393798828124,0.07550210796892642,-0.07758505172282457,0.33271044413149353
1687693635963358000,10.66435791015625,0.09703297177553176,-0.10737842470109463,0.31461934551522136
1687693635973322000,10.674322021484375,0.055905427095293996,-0.175679807510972,0.32265520632416006
1687693635983285000,10.684284912109375,-0.04303425508439541,-0.23118542163372038,0.30567806029915806
1687693635993249000,10.6942490234375,-0.11171382355690002,-0.24301482950672507,0.29365780602917074
1687693636003213000,10.704213134765626,-0.058334115546941755,-0.1825130145318806,0.31521446186415847
1687693636013176000,10.714176025390625,0.15729600955843925,-0.11613178612962365,0.25467092663943763
1687693636023139800,10.724139892578124,0.38893852730989453,-0.10565569256171584,0.1770259614229202
1687693636033104000,10.734103759765626,0.5524731389969587,-0.12473127217069267,0.07564334307052195
1687693636043067000,10.74406689453125,0.6145441029846668,-0.13314882577359677,-0.013203034313768148
1687693636053031000,10.754031005859375,0.6585527560591697,-0.1306830201819539,-0.06504764171093702
1687693636062995000,10.763994873046874,0.5498129798769951,-0.11480404465720057,-0.061405120490118856
1687693636072958000,10.7739580078125,0.2936439236342907,-0.127865770804137,-0.08471786274481564
1687693636082922000,10.783921875,-0.09966916549801826,-0.15932868442982434,-0.15836575768180192
1687693636092886000,10.793885986328124,-0.47966509241759775,-0.17953166063353418,-0.280373486640118
1687693636102849000,10.80384912109375,-0.7341799517124891,-0.1509884338468313,-0.3240290519606322
1687693636112813000,10.81381298828125,-0.8120873672574758,-0.1915983843937516,-0.3554371301265433
1687693636122777000,10.823777099609375,-0.7204641455709934,-0.2632867792934179,-0.3611956205880269
1687693636132740000,10.833739990234376,-0.6767781485795974,-0.3117189478985965,-0.3628791897607967
1687693636142704000,10.8437041015625,-0.8095476196467876,-0.36792438085377216,-0.3432277464926243
1687693636152668000,10.85366796875,-0.9483096091270447,-0.33800592019110914,-0.27668814919088036
1687693636162631000,10.863630859375,-0.8151981927543878,-0.25202917995899915,-0.2787467256885022
1687693636172595000,10.873594970703126,-0.35343349868655205,-0.17402940995544194,-0.24519352525267749
1687693636182559000,10.88355908203125,0.08874737398922443,-0.17290888149291275,-0.18657891226392237
1687693636192522000,10.89352197265625,0.22095044334530828,-0.23371683980748056,-0.21999281382691113
1687693636202486000,10.903486083984374,-0.0177899237126112,-0.24608853786364196,-0.2186072412200272
1687693636212450000,10.913449951171875,-0.4150169714182615,-0.2247837378978729,-0.2118515564147383
1687693636222413000,10.9234130859375,-0.7177706687033176,-0.16599004201516507,-0.22070297139026224
1687693636232377000,10.933377197265624,-0.8048001328587532,-0.10099018496870994,-0.17824425117149947
1687693636242341000,10.943341064453126,-0.7361568047434092,-0.0967057856477797,-0.17187950191255658
1687693636252304100,10.95330419921875,-0.7479927884876728,-0.1283006550900638,-0.13589984151478857
1687693636262268200,10.96326806640625,-0.9486229128599166,-0.15528510812744498,-0.09758603908102959
1687693636272232000,10.97323193359375,-1.142377890765667,-0.18045052904412148,-0.18157883895430713
1687693636282195200,10.9831953125,-1.1320423747122288,-0.19259250999763608,-0.25342596807964146
1687693636292159000,10.993158935546875,-0.8940735765486955,-0.17926219604238866,-0.2241706475008279
1687693636302123000,11.003123046875,-0.675053809005022,-0.18029446169957516,-0.1554452671252191
1687693636312086000,11.0130859375,-0.6550666675090789,-0.23971900283172726,-0.16107519930358974
1687693636322050000,11.023050048828125,-0.8114888168424368,-0.37826267338618635,-0.2005796362940222
1687693636332014000,11.03301416015625,-1.0850000530302524,-0.41188159600198265,-0.196556225996837
1687693636341977000,11.04297705078125,-1.2684972562938928,-0.2816619555480778,-0.20371786125451324
1687693636351941000,11.052941162109375,-1.0689514200270176,-0.1580119027428329,-0.21778251736629753
1687693636361905200,11.0629052734375,-0.5183733009964228,-0.09100114426538347,-0.28535248062908647
1687693636371868200,11.0728681640625,0.10142214664518832,-0.08900602492541074,-0.3084063892845064
1687693636381832200,11.082832275390626,0.40292847421765327,-0.2881555553510785,-0.34607659658510237
1687693636391796200,11.092796142578125,0.1486754807293415,-0.5730632148221135,-0.38324148471206426
1687693636401759200,11.10275927734375,-0.613961919182539,-0.685345924308151,-0.3378878102367744
1687693636411723300,11.11272314453125,-1.5787579682081936,-0.5865047340668738,-0.2427747006079182
1687693636421687000,11.12268701171875,-1.9689865353286264,-0.3517860237404704,-0.33002968061491844
1687693636431650000,11.132650146484375,-1.4619360078573227,-0.18604264996275305,-0.3433239368760958
1687693636441613800,11.14261376953125,-0.4119149137496948,-0.054540130091458555,-0.17925375700760632
1687693636451578000,11.152578125,0.6519757157564163,0.07663169652074575,-0.05947356790564954
1687693636461540900,11.162540771484375,1.299288115876913,0.010730360589921474,-0.18898177215456963
1687693636471505000,11.1725048828125,1.4083148923069237,-0.1125413604222238,-0.4099174928547814
1687693636481469000,11.182468994140624,1.2265186477422714,-0.11760916520580648,-0.48436084901839493
1687693636491432000,11.192431884765625,1.1073352189570664,0.0063688043795526025,-0.4514230405345559
1687693636501396000,11.20239599609375,1.1286989095032214,0.19185002106726168,-0.3708477209545672
1687693636511360000,11.212360107421874,1.0911503923535346,0.3204357767090201,-0.22175803340114653
1687693636521323000,11.222322998046875,0.7607809583902359,0.24466420414894818,-0.11078962138406932
1687693636531287000,11.232287109375,0.2697521759152412,0.13492007322981953,-0.14682970673218368
1687693636541251000,11.2422509765625,-0.18251988266408442,0.09826602070182561,-0.12898812589757144
1687693636551214000,11.252214111328126,-0.3726180916279554,0.1596989790469408,-0.13277889648266136
1687693636561177900,11.262177734375,-0.2638835761427879,0.3121902186721563,-0.16555208898931742
1687693636571142000,11.272141845703125,0.06865560307502747,0.2995233370617032,-0.2502559597413987
1687693636581105000,11.28210498046875,0.4216787673950195,0.2412929741501808,-0.32035438203588124
1687693636591069000,11.29206884765625,0.7166396188467741,0.1633351435922086,-0.32996282592378556
1687693636601033000,11.302032958984375,1.0142074379265307,0.12616758858412502,-0.3590870674688369
1687693636610996000,11.311995849609374,1.258884793817997,0.10231266574412584,-0.32729967112913727
1687693636620960000,11.3219599609375,1.399879072394967,-0.009015957887470722,-0.10233765405490994
1687693636630924000,11.331924072265625,1.2241612709611653,-0.15352072880342602,-0.029519451407715676
1687693636640887000,11.341886962890625,0.848600111618638,-0.19147914192825555,-0.19881752199232577
1687693636650851000,11.35185107421875,0.5250269136667252,-0.075929977992177,-0.21563838147707282
1687693636660815000,11.361815185546876,0.40296705266237254,0.06478621429577469,-0.11221176314167677
1687693636670777900,11.37177783203125,0.43897009393572806,0.12456629086732864,-0.1374217538524419
1687693636680742100,11.3817421875,0.4014923039346933,0.14697875981405376,-0.1771116669449955
1687693636690706000,11.391705810546876,0.2248012735545635,0.1107078613847494,-0.2124132088854909
1687693636700669000,11.4016689453125,0.044807109975814816,0.09057692750394344,-0.28764453708902
1687693636710632700,11.4116328125,0.08261690841019154,0.16807926937937737,-0.3593094780478626
1687693636720596700,11.4215966796875,0.2700713248670101,0.19599749613553286,-0.3823250274542719
1687693636730559700,11.431559814453125,0.375599153265357,0.11337255054935812,-0.29758206680081783
1687693636740523800,11.441523681640625,0.09887129311859608,-0.06552563448622822,-0.22592983919307588
1687693636750487800,11.45148779296875,-0.42599896868169307,-0.14282982344105838,-0.18427527496404944
1687693636760450800,11.461450927734376,-0.7766185789912938,-0.07456599616259336,-0.16799736324958503
1687693636770414800,11.471414794921875,-0.5285182629138231,0.03807677880749106,-0.22499197382107375
1687693636780379000,11.48137890625,0.15288520737886427,0.040421296107023955,-0.27935974302031097
1687693636790342000,11.491341796875,0.6424918480962515,-0.04653890220448374,-0.1834865357391536
1687693636800306000,11.501305908203125,0.3623182314097881,-0.20728096056357026,-0.07581511944085359
1687693636810270000,11.51127001953125,-0.5457926383197307,-0.2333439148418605,-0.02074526638686657
1687693636820233000,11.52123291015625,-1.2028700611293315,-0.10353504714593291,-0.06437164214551448
1687693636830196700,11.53119677734375,-1.2543705312639475,-0.005658025761693716,-0.27496063127852977
1687693636840160800,11.541160888671875,-0.8453776424407958,0.054719139920175075,-0.29155842259712517
1687693636850123800,11.551123779296875,-0.517591210708022,-0.032999037151783706,-0.23432145463712512
1687693636860087800,11.561087890625,-0.5891676696658135,-0.22059125464409587,-0.2964361116360873
1687693636870051800,11.5710517578125,-0.7473895618975162,-0.33497137480080125,-0.35636750631183384
1687693636880014800,11.581014892578125,-0.7081085218667984,-0.2984945785358548,-0.4370592188131064
1687693636889979000,11.590978759765624,-0.5313303977251053,-0.24439722377583384,-0.5021496767524629
1687693636899943000,11.60094287109375,-0.3118599638044834,-0.23776348484978077,-0.4698009932681918
1687693636909906000,11.610906005859375,-0.18392331972122192,-0.26285160274654623,-0.42498723435588176
1687693636919870000,11.620869873046875,-0.14693652810752392,-0.2385695405356586,-0.3810307498600334
1687693636929834000,11.630833984375,-0.22192425681352615,-0.23291999034136532,-0.4164596445072442
1687693636939797000,11.640796875,-0.24648995827138423,-0.28127938597127794,-0.5059427854251116
1687693636949761000,11.650760986328125,-0.20459026017487048,-0.29910467325821516,-0.4903313747953623
1687693636959724800,11.660724853515624,-0.21626666944324968,-0.2721004926070571,-0.39778753113262355
1687693636969688000,11.67068798828125,-0.39502866087853905,-0.21453005490899085,-0.27913974359408017
1687693636979651800,11.68065185546875,-0.6243640707314014,-0.13714476354196667,-0.2383685380708426
1687693636989615900,11.690615966796875,-0.7688526211649179,-0.10392024707123637,-0.2270074052967131
1687693636999579000,11.700578857421876,-0.7402613174527883,-0.08249211298674344,-0.2680165842942893
1687693637009543000,11.71054296875,-0.6294640242189169,-0.07038242686763406,-0.2380645866882056
1687693637019507000,11.7205068359375,-0.5138514396578073,-0.013352818048000335,-0.20607465351372956
1687693637029470000,11.730469970703124,-0.6290279708892107,-0.04009907841533422,-0.23238741783462463
1687693637039434000,11.74043408203125,-0.8997399317473173,-0.06836334213018418,-0.2810746571794152
1687693637049398000,11.75039794921875,-0.9725257664948701,-0.010639321305602788,-0.2839207673255354
1687693637059361000,11.760361083984375,-0.5217956766605377,0.11386705606803298,-0.28870091427415606
1687693637069325000,11.770324951171874,0.151537299901247,0.1638365172430873,-0.27612163788191973
1687693637079288800,11.780288818359375,0.6151707104504108,0.023846593403071163,-0.3002657529268414
1687693637089252000,11.790252197265625,0.5188526089459657,-0.2214211295969784,-0.32367841189205643
1687693637099216000,11.8002158203125,-0.15622633450031279,-0.38875425678417086,-0.2705053323701024
1687693637109180000,11.810179931640626,-0.9791647661179304,-0.3959875690385699,-0.07124985735192894
1687693637119143000,11.820142822265625,-1.3222358607441187,-0.19175182138979432,0.06119666537120938
1687693637129107000,11.83010693359375,-0.9744628720372914,-0.017169307596236465,0.10007606579847633
1687693637139071000,11.840071044921874,-0.1518126097112894,0.012051672321557998,0.08200644836165011
1687693637149034000,11.850033935546875,0.6808996124237775,-0.04821063480898738,0.026046660730615255
1687693637158998000,11.859998046875,1.0661340245187283,-0.14008856190890073,0.03877813200987875
1687693637168962000,11.869962158203125,0.8844961853861808,-0.12915215735286473,0.08778744291588664
1687693637178924800,11.8799248046875,0.4464151492446661,-0.06303834771513939,0.06503638966456056
1687693637188888800,11.889888916015625,0.16024842962324617,-0.017145196068286895,-0.10343260968476534
1687693637198853000,11.89985302734375,0.11972586509883403,0.05545359167456627,-0.1679082236614078
1687693637208815900,11.90981591796875,0.146449621373415,0.022537995022535322,-0.06462123299241065
1687693637218780000,11.91977978515625,0.006380056425929069,-0.0642481618963182,0.04569061481207609
1687693637228743700,11.92974365234375,-0.22940146082639692,-0.15475830777436494,0.07281637601628899
1687693637238707000,11.93970703125,-0.4547790729641914,-0.16429522079601883,0.09237732798941432
1687693637248670700,11.949670654296876,-0.3969932389497757,-0.09487374791502952,0.05930515253618359
1687693637258634800,11.959634765625,0.10653028343915939,0.024630583387613297,0.04677358774319291
1687693637268597800,11.96959765625,0.7528361368656158,0.09987550172507763,0.026769056721031664
1687693637278561800,11.979561767578126,1.164058392176032,0.11934504908770321,0.16321568193100391
1687693637288525800,11.98952587890625,1.1059686067789793,0.08552738902941345,0.267383985479176
1687693637298488800,11.99948876953125,0.753466251462698,0.11934636426195501,0.30015133276693523
1687693637308452900,12.009452880859374,0.39644437289535994,0.1285688045069575,0.27036921183504165
1687693637318417000,12.0194169921875,0.32313831366598605,0.2366536239117384,0.3020714141093194
1687693637328380000,12.0293798828125,0.5084644859224557,0.3233046101436019,0.28010003999359906
1687693637338344000,12.039343994140625,0.6540443387240171,0.23538535754159093,0.2564459004227072
1687693637348308000,12.049307861328124,0.5439531479328871,0.11684227248653768,0.2233200220208615
1687693637358271000,12.05927099609375,0.3232230693399906,0.10506021088659763,0.19335611478127537
1687693637368234800,12.06923486328125,0.18709493549466133,0.13864406218901276,0.16349055334962903
1687693637378198800,12.07919873046875,0.2343739885419607,0.21371274717673658,0.1950583155892789
1687693637388161800,12.089161865234376,0.3762304369062185,0.23088556190431117,0.21245492913536726
1687693637398125800,12.099125732421875,0.5079746565788984,0.15393120930045842,0.1560549234561622
1687693637408089900,12.10908984375,0.4667313765645027,0.025394991888850926,0.19964089413918554
1687693637418052900,12.119052978515626,0.24759821177423,-0.0855668442569673,0.33202874547764655
1687693637428017000,12.129016845703125,-0.02417816344499588,-0.07309636200144887,0.42916254727914926
1687693637437981000,12.13898095703125,-0.11408990503847598,-0.0052849546656012535,0.3410333051882684
1687693637447944000,12.14894384765625,0.0960036287277937,0.03486030097901821,0.151947634267807
1687693637457908000,12.158907958984376,0.4524082521796226,0.008452478785812853,0.0881963159777224
1687693637467872000,12.1688720703125,0.6604740795105696,-0.08970628214925527,0.1405912507340312
1687693637477835000,12.1788349609375,0.7130220128715038,-0.16264745358899235,0.18939714802242813
1687693637487799000,12.188799072265626,0.4297019148528576,-0.14824088870435953,0.2150833048775792
1687693637497762800,12.1987626953125,0.03447685461938381,-0.08491495621949434,0.19321692550629377
1687693637507726000,12.20872607421875,-0.26521920866072174,0.03235124076753854,0.11763546869084238
1687693637517690000,12.218690185546874,-0.29403672234416006,0.12291647783368825,0.09603541210554539
1687693637527654100,12.228654052734376,-0.11061726049184799,0.09488470770046115,0.11198124232143163
1687693637537617200,12.2386171875,-0.0853764362514019,-0.01941664813160896,0.15378880515508353
1687693637547581200,12.248581298828125,-0.20208499935567378,-0.10693944876193999,0.1538128436177969
1687693637557545200,12.258545166015624,-0.4944125796943903,-0.1872534870572388,0.15185345317833124
1687693637567508200,12.26850830078125,-0.9509171612769365,-0.21290230757668613,0.22790099313557147
1687693637577472300,12.27847216796875,-1.3003127827495335,-0.14471432201340795,0.22975180863402783
1687693637587436300,12.288436279296874,-1.30753688878417,-0.09874678995609283,0.16717121462374926
1687693637597399300,12.2983994140625,-1.0203531010746956,-0.14636092017665506,0.11979374270327389
1687693637607363300,12.30836328125,-0.5510609341114759,-0.2493083766929805,0.05606375946216285
1687693637617327000,12.3183271484375,-0.19115385549664496,-0.45714171044230456,0.010167027618736028
1687693637627290400,12.328290283203126,-0.16791326516270635,-0.6245872119627892,0.03683189331293106
1687693637637254100,12.338254150390625,-0.5287807132422924,-0.7351512809626758,0.09067432346381246
1687693637647218200,12.34821826171875,-0.9654787705928086,-0.7154951249867677,0.12778130739107726
1687693637657181200,12.35818115234375,-1.182977027657628,-0.5881497247949242,0.07207556758634745
1687693637667145200,12.368145263671876,-1.0029863712102174,-0.4998562320530414,0.027958631831780073
1687693637677109200,12.378109130859375,-0.5191249961465597,-0.44760362837687134,0.18536986526772378
1687693637687072000,12.388072021484374,-0.23202362602353094,-0.45768443901687855,0.38225926874168215
1687693637697036300,12.398036376953126,-0.2855839512974024,-0.5564082864888013,0.4117461330540478
1687693637707000300,12.408000244140625,-0.5531301416009664,-0.5203125984959304,0.369530354745686
1687693637716963000,12.417963134765625,-0.8280453993678093,-0.38950434449911114,0.33641258658505974
1687693637726927000,12.427927001953124,-0.765598003283143,-0.24224662161320445,0.4022097314890474
