time,seconds_elapsed,z,y,x
1687692876180263200,0.04126318359375,-0.005848726028203964,0.009636135612428189,-0.712000414738804
1687692876190226200,0.05122607421875,0.18131693661510942,0.018351941509544847,-0.5384542947882786
1687692876200190000,0.06118994140625,0.44524318285584447,0.046722588208317754,-0.37819457658603783
1687692876210153200,0.0711533203125,0.7214110710322856,0.06301642814427613,-0.2882577736165374
1687692876220117000,0.081116943359375,0.9183698134154081,0.035465281134843825,-0.22558705363739281
1687692876230080000,0.091080078125,0.9491717789143324,0.02359860999137163,-0.22731961305104195
1687692876240044000,0.1010439453125,0.912314166638255,0.10818155777752399,-0.25212858521286396
1687692876250007000,0.111007080078125,0.9511837032586336,0.19197335518598554,-0.2125388810917735
1687692876259971000,0.12097119140625,1.0530167687922716,0.2512435825392604,-0.10722743539046496
1687692876269934000,0.13093408203125,1.1196101786404848,0.27515841887295245,0.0021945143695920703
1687692876279898000,0.140898193359375,1.0725672724366186,0.2170391151204705,0.0836798979992047
1687692876289861000,0.150861083984375,0.9546037408351897,0.16645400626510382,0.1161031080244109
1687692876299825200,0.1608251953125,0.8213742510408163,0.1483364580333233,0.12786617266293615
1687692876309788200,0.1707880859375,0.7439993349373341,0.06986234851628542,0.18470727317314595
1687692876319752200,0.180752197265625,0.6391390305370092,0.0217655493453145,0.23635219327975063
1687692876329715200,0.190715087890625,0.4145335718154907,-0.062492112009227274,0.14123093687705696
1687692876339679200,0.20067919921875,0.1254781450152397,-0.12489040825515985,-0.030904110699146985
1687692876349642000,0.21064208984375,-0.07767068417966365,-0.15625760642141104,-0.17548296976462005
1687692876359606000,0.22060595703125,-0.1306681148737669,-0.21603841364532708,-0.22680322449412196
1687692876369569000,0.230569091796875,-0.09222235662341118,-0.2802785383656621,-0.20345738368742167
1687692876379533000,0.240532958984375,-0.10057926608026027,-0.34189649788886306,-0.1865458137119189
1687692876389496000,0.25049609375,-0.26732874816060065,-0.35781215216219425,-0.2073664468899369
1687692876399460000,0.260460205078125,-0.5214589920520782,-0.3845815011441707,-0.23540504862274972
1687692876409423000,0.270423095703125,-0.7460860780835151,-0.3658981357231736,-0.2688847454309463
1687692876419386000,0.28038623046875,-0.7509300109833479,-0.2792120781779289,-0.24933541083037852
1687692876429350100,0.29035009765625,-0.6431038425147533,-0.24120208099633453,-0.18273213717527687
1687692876439313200,0.300313232421875,-0.4842372226387262,-0.22385259452760217,-0.10768566401936114
1687692876449277200,0.310277099609375,-0.2723708339810371,-0.23463468530476092,-0.059674935696646565
1687692876459240200,0.320240234375,-0.03302373320162296,-0.23292291295081374,-0.017826967787370085
1687692876469204200,0.330204345703125,0.21386019282341,-0.277753403802216,0.026522169287875295
1687692876479167200,0.340167236328125,0.40384851167201996,-0.27257629342526196,0.01937310125082731
1687692876489131300,0.35013134765625,0.4931599492847919,-0.24732933170497415,0.013185717852786183
1687692876499094300,0.36009423828125,0.5383569353610277,-0.28225568365752696,0.07661087292842567
1687692876509058300,0.370058349609375,0.5963409222960472,-0.26028818199932574,0.11642265883497893
1687692876519021000,0.38002099609375,0.6241378607600927,-0.17535598238408565,0.19084588552601633
1687692876528985000,0.389985107421875,0.623249387487769,-0.10514175169020891,0.28662629995718597
1687692876538948000,0.399947998046875,0.5455857175707817,-0.01513940920382738,0.34587336563058196
1687692876548912000,0.409912109375,0.4841939680188894,0.009024141193926334,0.4205779665462672
1687692876558875100,0.419875244140625,0.3815846574157476,0.061412792339920995,0.41402905635945497
1687692876568839200,0.429839111328125,0.29734160910844804,0.10134528201669454,0.35766119938418267
1687692876578802200,0.43980224609375,0.22695874384939668,0.12260785027593374,0.34444830126352605
1687692876588766200,0.44976611328125,0.17156418888568878,0.16663403900712728,0.3787592247314751
1687692876598729200,0.459729248046875,0.1397077458977699,0.16055822622478008,0.4354774295143783
1687692876608693200,0.469693359375,0.11739537632465362,0.16802753919214009,0.5060435423858464
1687692876618656300,0.47965625,0.1353910517424345,0.1573369260907173,0.5645996301203966
1687692876628620000,0.4896201171875,0.15186989285647867,0.1383580848544836,0.5898695343248546
1687692876638583300,0.499583251953125,0.14326514611840246,0.12729308548271656,0.6013401918880641
1687692876648547000,0.509547119140625,0.08747486983537674,0.08114595907479524,0.634928134843707
1687692876658510300,0.51951025390625,-0.01173310789167881,0.024658932699263093,0.6323593072690069
1687692876668474000,0.52947412109375,-0.18433482313156127,0.0016384148567914962,0.5750926017578691
1687692876678437000,0.53943701171875,-0.3931915085792541,0.012182605224847792,0.5041159353241325
1687692876688400100,0.549400146484375,-0.6620458588719368,-0.0005216857865452766,0.43641609860397873
1687692876698364200,0.5593642578125,-0.9056558777928352,-0.0033463878184556957,0.4429203659314662
1687692876708327200,0.5693271484375,-1.0540665701061487,-0.014057751446962356,0.4700706039898097
1687692876718291000,0.579291015625,-1.0419774883836508,-0.05386252309083938,0.49265587222017343
1687692876728254000,0.58925390625,-0.8893675908148289,-0.12426467757225036,0.49573783694878215
1687692876738217200,0.59921728515625,-0.6715075147002935,-0.2061693460598588,0.43320217805877326
1687692876748180200,0.60918017578125,-0.4889209965407848,-0.2824672805815935,0.3547624092027545
1687692876758144300,0.619144287109375,-0.3484282377451658,-0.36407413516640663,0.28151787090227004
1687692876768107300,0.629107177734375,-0.23605390445291993,-0.3883247793257236,0.27746808405481277
1687692876778071000,0.639071044921875,-0.12959259459674358,-0.33665158297270537,0.34426812239103016
1687692876788034300,0.649034423828125,-0.066362523701787,-0.2797001539558172,0.3907366627730429
1687692876797998000,0.658998046875,0.0017658406287431715,-0.2252440488860011,0.41286103549338876
1687692876807961300,0.66896142578125,0.09215279851853847,-0.14224281733334063,0.41159313444942236
1687692876817925000,0.678925048828125,0.1680816074669361,-0.07118979772776365,0.41779461943805213
1687692876827888000,0.68888818359375,0.19607377624213695,0.01537467926442623,0.3995000341389328
1687692876837852200,0.69885205078125,0.1848217298656702,0.0887418210312724,0.3862199160009622
1687692876847815200,0.708815185546875,0.15724690971970556,0.11864040794968604,0.37207514385767276
1687692876857779200,0.718779296875,0.1656324607491493,0.1470206992596388,0.35273747924640775
1687692876867742200,0.7287421875,0.26506664844751354,0.15421967085301874,0.3290918152429163
1687692876877706200,0.738706298828125,0.3708119189888239,0.1799538315683603,0.2868039215464145
1687692876887669200,0.748669189453125,0.4724047460258007,0.2041381324931979,0.20013576498404145
1687692876897633300,0.75863330078125,0.5431511839002371,0.22287878105938433,0.12378522349223493
1687692876907596000,0.768595947265625,0.6322907720774412,0.21835136676281688,0.06788235368020833
1687692876917560300,0.778560302734375,0.7010656176179647,0.23171090681254863,0.09612104456238448
1687692876927523000,0.788523193359375,0.7378852359712124,0.23803075748383998,0.11619126123189925
1687692876937487000,0.798487060546875,0.7114420502036809,0.25666385402232406,0.13957820123396814
1687692876947450000,0.8084501953125,0.6277437762975693,0.31334903331846,0.17301124588884412
1687692876957414100,0.8184140625,0.6093091249406337,0.36230829453766344,0.18543387041464446
1687692876967377200,0.828377197265625,0.6729308255016804,0.4145382479906082,0.2617069627560675
1687692876977341200,0.838341064453125,0.7739204259485006,0.39227439373433587,0.35255985765717923
1687692876987304200,0.84830419921875,0.7619096701592206,0.34300358234792944,0.41452904177084565
1687692876997267200,0.85826708984375,0.7025175699919461,0.27288462872207164,0.41391960463561117
1687692877007231200,0.868231201171875,0.6905792949169873,0.23283172753602266,0.37015031327493486
1687692877017194200,0.8781943359375,0.7915653882324695,0.17360417028069494,0.3454619352854788
1687692877027158300,0.888158203125,0.8734270943611859,0.07854483666568994,0.28609650392942126
1687692877037121300,0.898121337890625,0.8363421030700207,-0.038810207648575304,0.21553367899358272
1687692877047085300,0.908085205078125,0.6753226890742778,-0.14313538225889205,0.11903466796427964
1687692877057048300,0.91804833984375,0.41465807497799395,-0.23096447235941886,0.08788067415729164
1687692877067012400,0.928012451171875,0.13969021024107933,-0.2821703434616327,0.1221127602353692
1687692877076975000,0.93797509765625,-0.0925485198378563,-0.32773791641592975,0.22209574092291295
1687692877086939400,0.947939453125,-0.32454116620123385,-0.3409802598267793,0.3518832005046308
1687692877096902100,0.957902099609375,-0.5717261209994554,-0.37269875564873217,0.46634822246581314
1687692877106866200,0.9678662109375,-0.7670569699198008,-0.4158227348431945,0.5728345206327736
1687692877116829200,0.9778291015625,-0.9251046746283769,-0.527511423958838,0.6463533458299935
1687692877126793200,0.987793212890625,-1.0631605616658926,-0.5653016409099102,0.5947150746598839
1687692877136756200,0.997756103515625,-1.234449440741539,-0.5721835093781352,0.43602541878595946
1687692877146720300,1.00772021484375,-1.4699778600156306,-0.5381637508764863,0.20493790456876157
1687692877156683300,1.017683349609375,-1.7114198872476816,-0.4708008179605007,-0.018511296789720653
1687692877166647300,1.027647216796875,-1.836626229584217,-0.41308921822607514,-0.1923922381851822
1687692877176610300,1.0376103515625,-1.7507319069385527,-0.3362289736464619,-0.2920614767484367
1687692877186574300,1.04757421875,-1.4386702830821274,-0.26692367449104787,-0.29729060957357284
1687692877196537300,1.057537353515625,-0.9858388370543718,-0.23356676381230354,-0.2240093925245106
1687692877206501000,1.067501220703125,-0.5441577305942773,-0.27643443015813823,-0.09938822966478765
1687692877216464400,1.07746435546875,-0.08050853795409202,-0.2525134563446045,-0.06987228538841009
1687692877226428200,1.08742822265625,0.28608137942552564,-0.21077537855058906,-0.12839417859241364
1687692877236391400,1.097391357421875,0.5382072977572679,-0.14203765015006065,-0.18239662161059678
1687692877246355200,1.107355224609375,0.6986655707389116,-0.0942018400028348,-0.27663082951307294
1687692877256318200,1.117318115234375,0.7701596121102571,-0.0667778265044093,-0.35617527167536317
1687692877266282200,1.1272822265625,0.7968307614147663,-0.06743658267408609,-0.41227286034189164
1687692877276245000,1.137244873046875,0.8499480190962553,-0.03539864563941955,-0.38574579568319023
1687692877286209000,1.147208984375,0.9314023134678602,0.042240474358201024,-0.35873372398652137
1687692877296172000,1.157172119140625,0.981979823538661,0.10866524964123964,-0.29574345319680867
1687692877306136000,1.167135986328125,0.9986673389673233,0.1894575729727745,-0.22779168754220008
1687692877316099000,1.17709912109375,0.9755331316173076,0.22288258045166728,-0.17908048279993236
1687692877326062000,1.18706201171875,1.0027712671548128,0.2297963053628802,-0.12359167368151247
1687692877336026000,1.197026123046875,1.1095973186701535,0.24581220514029262,-0.08226378412358462
1687692877345989000,1.206989013671875,1.267697045826912,0.23392945964485407,0.035514892430230975
1687692877355953200,1.216953125,1.3317366795390844,0.17604893308430908,0.10129793574362993
1687692877365916200,1.226916259765625,1.2740034524947403,0.11421937663704156,0.10105324026755988
1687692877375880200,1.236880126953125,1.1061959857940673,0.060139995925128455,-0.010233443918451665
1687692877385843200,1.24684326171875,0.9063128803968429,-0.016609189495444297,-0.09531659631170332
1687692877395807200,1.25680712890625,0.6796423058390617,-0.06987637704163789,-0.18904775006286798
1687692877405770200,1.266770263671875,0.5058499195098877,-0.09711948101520537,-0.2637117997724563
1687692877415734300,1.276734375,0.4887760351121425,-0.16090046379119158,-0.22659049505889414
1687692877425697300,1.286697265625,0.6453811397969722,-0.2264624847650528,-0.13616028254926205
1687692877435661300,1.296661376953125,0.9575924012571573,-0.1869341919749975,-0.003068520725145936
1687692877445624000,1.3066240234375,1.1299094543367623,-0.09736088855564594,0.10670381337516009
1687692877455588400,1.31658837890625,1.2828081057190894,0.014184884957969188,0.17063962138667702
1687692877465551000,1.326551025390625,1.3550433208465575,0.039894788014888764,0.1608379199489951
1687692877475515100,1.33651513671875,1.311970487317443,0.2021884597301483,-0.05260923509411514
1687692877485478100,1.34647802734375,1.0985510239988565,0.2210313996270299,-0.40714382689036427
1687692877495442200,1.356442138671875,0.7801327245920896,-0.2538052497208118,-0.2677411283537745
1687692877505405200,1.3664052734375,0.7331377491831779,-0.24912965912520885,-0.4129498828206211
1687692877515369200,1.376369140625,0.8862462439239025,-0.00576134000569582,-0.7643602051164955
1687692877525332200,1.386332275390625,1.155363629066944,0.10635609591603279,-1.1415719081450253
1687692877535296300,1.396296142578125,1.5641034199118613,0.19353402863144872,-1.2962643841415642
1687692877545259300,1.40625927734375,2.2599930961966512,0.3012584902912378,-1.1161384108766912
1687692877555223300,1.416223388671875,2.992262245851755,0.4377282771810889,-0.43451048417836424
1687692877565186300,1.426186279296875,3.0508424451142546,0.3396601171389222,0.26154117773510516
1687692877575150300,1.436150390625,2.8161761956274507,-0.09728197810053825,0.6017314562279731
1687692877585113300,1.44611328125,2.3499977767705915,-0.407382531017065,0.6692009913235902
1687692877595077400,1.456077392578125,2.072657922205329,0.05068301627188921,-0.006532580106519162
1687692877605040400,1.466040283203125,1.938026748919487,0.52352586145401,-0.6081629140475765
1687692877615004400,1.47600439453125,1.791295387995243,0.49656128216087814,-0.6180201815973967
1687692877624967400,1.485967529296875,2.0051281082898376,-0.3085606299981475,-0.2789402754992246
1687692877634931200,1.49593115234375,2.1247961057215927,-1.8254072086945174,-0.3476645598962903
1687692877644894200,1.505894287109375,1.60998488112092,-2.844583374944329,-0.38061807740591463
1687692877654857200,1.515857177734375,0.9077192400634289,-2.743226110228896,-0.8634756091892719
1687692877664821200,1.5258212890625,-0.08319207794964313,-2.359076278500259,-1.5293582697451114
1687692877674784300,1.5357841796875,-1.109499703514576,-1.7998174248859284,-1.366439159607887
1687692877684748300,1.545748291015625,-2.062822172367573,-1.213248247280717,-1.0003186133056878
1687692877694711300,1.555711181640625,-2.8379823692440986,-0.7799819179445505,-0.41763000346086915
1687692877704675000,1.565675048828125,-3.451970591911673,-0.4298655809819698,0.20054752412270754
1687692877714638300,1.575638427734375,-3.821663736003637,-0.21479338202029466,0.7121937453538179
1687692877724602000,1.58560205078125,-3.976591262865066,-0.1538917540729046,1.278441142681241
1687692877734564900,1.59556494140625,-3.945468394848704,-0.01811491788327694,1.6736536356940865
1687692877744529000,1.60552880859375,-3.750124101924896,0.16646043600589036,1.8205941093243658
1687692877754492000,1.615491943359375,-3.4058541529029607,0.32083032898455854,1.8879639103725552
1687692877764455700,1.62545556640625,-2.9772850414723155,0.4791510054156184,1.8596841568276286
1687692877774419000,1.6354189453125,-2.4471143351763485,0.6018824820712209,1.779609334115684
1687692877784382700,1.6453828125,-1.8426888906240462,0.6029752457439899,1.6819444941774009
1687692877794345700,1.655345703125,-1.3612532814025877,0.48642888746410606,1.656110380218923
1687692877804309500,1.6653095703125,-1.139789043316245,0.3947697176814079,1.7621159091316163
1687692877814272800,1.675272705078125,-1.0038596469134091,0.4318102853089571,1.8384291873529552
1687692877824236500,1.685236572265625,-0.9894412454605102,0.40417409036457536,1.7799974566504357
1687692877834199600,1.695199462890625,-1.1214368095457554,0.45346185288578267,1.4876258910395204
1687692877844163600,1.70516357421875,-1.0848755498677491,0.6293421514049172,1.1612287947732955
1687692877854126600,1.715126708984375,-0.9564753799259662,0.7227677463382483,0.8901839486990123
1687692877864090600,1.725090576171875,-0.5946610063850879,0.7343924254193902,0.7834670566465706
1687692877874053600,1.7350537109375,0.14505670571029186,0.7709855415403842,0.6666287296827882
1687692877884017700,1.745017578125,1.0142658901154995,0.9152192404299974,0.4654363683179021
1687692877893980700,1.754980712890625,1.7785662548035381,0.991439141279459,0.29567177620008583
1687692877903944700,1.76494482421875,2.3465648797124623,0.9840221430212259,0.14738113006986678
1687692877913907700,1.77490771484375,2.654001766377687,0.9436012853056192,0.023572087310627102
1687692877923871700,1.784871826171875,2.5919004072517153,0.9032850570082664,-0.06350640361830592
1687692877933834800,1.794834716796875,2.1584283262103794,0.9786892575606703,-0.36841326034925875
1687692877943798800,1.804798828125,1.4027917449712752,1.1329647502541542,-0.5972579640757292
1687692877953761800,1.81476171875,0.7925497230947017,1.093277759771049,-0.4723639025587588
1687692877963725800,1.824725830078125,0.3593646423012018,1.2974316743552683,-0.43467590387314553
1687692877973688800,1.834688720703125,0.23043255743980406,1.5748542387679219,-0.42874622156322
1687692877983652900,1.84465283203125,0.39002690706849097,1.8361407841548323,-0.3311715441264212
1687692877993615600,1.85461572265625,0.42532793755233284,1.883775518772006,-0.1543333603605628
1687692878003579600,1.86457958984375,0.515925907844305,1.8732883192881942,-0.08393719722852111
1687692878013542700,1.874542724609375,0.31411914090812204,1.2784496182486413,0.008407616730779409
1687692878023506700,1.884506591796875,-0.5796230117291212,0.12463994062542914,0.46525721235871315
1687692878033469700,1.8944697265625,-1.3147019581079482,-1.418165547452867,0.9744640410810709
1687692878043432700,1.9044326171875,-3.0358506276875734,-2.5142139409810302,0.7264442428939044
1687692878053396700,1.914396728515625,-5.34682338501513,-2.9319261428326366,-0.19703253827169537
1687692878063359700,1.92435986328125,-7.094851878213882,-2.647238263592124,-0.642504853708297
1687692878073323800,1.93432373046875,-7.536460503959655,-1.4760299996614454,-0.7993943282924592
1687692878083286800,1.944286865234375,-6.650191463682055,-0.24770605606287716,-0.79743924870193
1687692878093250800,1.954250732421875,-4.843415013438463,0.49571898611783977,-0.544409221137315
1687692878103213800,1.9642138671875,-2.5432009660124777,0.8687535495921969,-0.3036448009058833
1687692878113177900,1.974177734375,-0.5521048902064561,1.018261681753397,-0.4516629867702722
1687692878123140900,1.984140869140625,0.8469400694519281,1.21182493647933,-0.6592923223800957
1687692878133105000,1.99410498046875,2.0966519612550734,1.3272341074228287,-0.25748890666961666
1687692878143068000,2.00406787109375,3.254844091746211,1.1823907522022723,-0.41624256769046186
1687692878153032000,2.014031982421875,3.9606893448561427,1.1332272005826234,-0.5697770327582955
1687692878162994700,2.02399462890625,4.204706775534153,0.9667571199655532,-0.4866534900002181
1687692878172958700,2.033958740234375,4.265834321191907,0.7030646824806929,-0.45851095296889544
1687692878182921700,2.043921630859375,4.085149252739549,0.49491760660707945,-0.3640966392591595
1687692878192885800,2.0538857421875,3.587187456130981,0.2556768888115883,-0.19974135883897542
1687692878202848800,2.063848876953125,2.7723586812108754,0.006363105291128158,-0.06955868939459324
1687692878212812500,2.0738125,1.8123931210815905,-0.20118015947043894,0.0703854956075549
1687692878222775800,2.08377587890625,0.9584475567817687,-0.2961550296723842,0.20781039126515388
1687692878232739600,2.093739501953125,0.3041185558974743,-0.32296471066474913,0.37443770827054973
1687692878242702800,2.103702880859375,-0.1713145980387926,-0.3051215954601765,0.5986038987919687
1687692878252666600,2.11366650390625,-0.5428554158240556,-0.3097758510068059,0.8890130782887339
1687692878262629600,2.123629638671875,-0.9795020352482795,-0.25497458576112986,1.1132952964052558
1687692878272593700,2.13359375,-1.4107377355396746,-0.056090136012434955,1.1879068852752446
1687692878282556700,2.143556640625,-1.5602315469145773,0.24824264715760944,1.0997414028272032
1687692878292520700,2.153520751953125,-1.5845008957743645,0.34544337671548125,1.2950126305148004
1687692878302483700,2.163483642578125,-1.6821593059718607,0.22560411437004804,1.608983595123887
1687692878312447700,2.17344775390625,-1.5506675997555255,0.3235051011517644,1.506833426465094
1687692878322410800,2.18341064453125,-1.191158580547571,0.5939218784555792,1.1741028163284062
1687692878332374800,2.193374755859375,-0.906999109095335,0.695557667851448,1.1045847512051463
1687692878342337500,2.203337646484375,-0.4950526311635971,0.8004390150398015,0.9531251927152276
1687692878352301800,2.2133017578125,-0.11143442209362983,0.8735948521435261,0.7852481679096818
1687692878362264600,2.2232646484375,0.16776947277784346,0.8804781819164752,0.6657058426842093
1687692878372228600,2.233228515625,0.3578524841725826,0.8570365160524844,0.563869562280178
1687692878382191600,2.243191650390625,0.518928596791625,0.8262409802943468,0.4757973110735416
1687692878392155600,2.25315576171875,0.6152864457845687,0.7835068772003054,0.47091187711954113
1687692878402118700,2.26311865234375,0.6412164213329553,0.6355532810047269,0.4987181679338216
1687692878412082700,2.273082763671875,0.5978197626769542,0.547218871730566,0.5230775331646204
1687692878422045700,2.283045654296875,0.4653279395073652,0.5172101024359465,0.4975540925905108
1687692878432009700,2.293009765625,0.31601591444015503,0.5784004841968416,0.4479049494110048
1687692878441972700,2.30297265625,0.24460955135226248,0.658028147663176,0.4254195613585412
1687692878451936800,2.312936767578125,0.23727789328992366,0.6861199774205684,0.4214261078082025
1687692878461899800,2.322899658203125,0.24401976876556872,0.6200470843151211,0.4328966192409396
1687692878471863800,2.33286376953125,0.23900632451772688,0.49967590705007314,0.4674054764337837
1687692878481826800,2.342826904296875,0.19480302565395832,0.36831133434474467,0.5405490385778248
1687692878491790800,2.352790771484375,0.11722118880152702,0.2753019189968705,0.5450210694253445
1687692878501753900,2.36275390625,0.027327567386627196,0.19643793337941168,0.49577144695743913
1687692878511718000,2.3727177734375,-0.13155132744908332,0.10288228232562541,0.45298941306844354
1687692878521681000,2.382680908203125,-0.33245442354381083,0.036758535815775394,0.35697803942561146
1687692878531645000,2.39264501953125,-0.4829162031680345,0.028949615630507467,0.2676511119827628
1687692878541607700,2.402607666015625,-0.5424690468549728,0.052663376434147355,0.17514482385143637
1687692878551570700,2.41257080078125,-0.5356663811028003,0.08357903144061565,0.13010609707683324
1687692878561534700,2.42253466796875,-0.46644554536044597,0.08500672615617513,0.0853723445981741
1687692878571497700,2.432497802734375,-0.2918915270090103,0.1371051621839404,0.007162585105746984
1687692878581461800,2.442461669921875,-0.05262625929415226,0.1861848349124193,-0.05419774639457464
1687692878591424800,2.4524248046875,0.14292612342238425,0.2519926473408937,-0.14594181798174977
1687692878601388800,2.462388916015625,0.29612872618734837,0.30564620385617014,-0.22666136833801864
1687692878611351800,2.472351806640625,0.4860860653758049,0.30516280425339937,-0.3134868343539536
1687692878621315800,2.48231591796875,0.5752922890484333,0.33856004694253206,-0.3879708513215184
1687692878631278800,2.49227880859375,0.6293178937464952,0.3840978092804551,-0.47000396849438547
1687692878641242600,2.50224267578125,0.6147551153868437,0.37049101647138594,-0.498369646757096
1687692878651206000,2.512205810546875,0.6010749650806189,0.3534773378282785,-0.5207699868746102
1687692878661169700,2.522169677734375,0.5327116229504346,0.26844606175273655,-0.4815089667186141
1687692878671133000,2.5321328125,0.4356207835078239,0.21008067428469657,-0.44881768034175035
1687692878681096700,2.5420966796875,0.2728109789639711,0.1992930305495858,-0.43443288889750836
1687692878691059700,2.552059814453125,0.10225859746932983,0.14838964952528474,-0.2963841622531414
1687692878701023700,2.562023681640625,-0.09757891522049904,0.10449410143643617,-0.17620047038421033
1687692878710986500,2.571986572265625,-0.29890578968524933,0.08626111013144254,-0.04787292728722095
1687692878720950800,2.58195068359375,-0.4672469248712063,-0.028702655132114886,0.0915880042426288
1687692878730913500,2.59191357421875,-0.6719944214344025,-0.05776391444355249,0.15758783211186528
1687692878740877800,2.6018779296875,-0.8915151242375373,-0.019372516728937625,0.1811953560620546
1687692878750840800,2.6118408203125,-0.9778279645562171,0.013148527647554874,0.13559198114201426
1687692878760804900,2.621804931640625,-0.9913368499487638,0.040946342894434926,0.11775047337263822
1687692878770768000,2.631767822265625,-0.8369085047811269,0.04433656985461712,0.026779431984573603
1687692878780732000,2.64173193359375,-0.6248831261694431,0.07541209159791469,-0.029381138915568587
1687692878790695000,2.65169482421875,-0.34578970593512054,0.09981967988461256,-0.06454422223344444
1687692878800659000,2.661658935546875,-0.06194178465008735,0.1654094656482339,-0.08655527077242732
1687692878810622000,2.6716220703125,0.16466098536849022,0.1800198825418949,-0.04142842732295394
1687692878820586000,2.6815859375,0.21731413266956806,0.18359861781150102,0.0332164062295109
1687692878830549000,2.691549072265625,0.20558044025599956,0.2268412549495697,0.055791153065860265
1687692878840513000,2.701512939453125,0.12442600561380386,0.310903978253901,0.08800167018845677
1687692878850476000,2.71147607421875,0.0021948796957731247,0.3499184763029218,0.08138904711566865
1687692878860440000,2.721440185546875,-0.13746084375381468,0.3056485419437289,0.11129084890447556
1687692878870403000,2.731403076171875,-0.29963176587224005,0.2647776023730635,0.12228051801770924
1687692878880367000,2.7413671875,-0.4387754481464624,0.21312632559090852,0.10229922174066304
1687692878890330000,2.751330078125,-0.6361176368892193,0.16349895585179328,0.10769238602109253
1687692878900294100,2.761294189453125,-0.8634107272595166,0.19084522793889044,0.033792087225615976
1687692878910257000,2.7712568359375,-0.9293471345037221,0.2226125313386321,-0.05879756834022701
1687692878920221200,2.78122119140625,-0.7770990559846163,0.15745733759999275,-0.022500074164941906
1687692878930184000,2.791183837890625,-0.5650935511171817,0.12836305280178784,-0.039285350879654284
1687692878940148000,2.80114794921875,-0.409210330966115,0.1851829643934965,-0.08259886129684746
1687692878950111000,2.811111083984375,-0.18982874437272548,0.2030228647276759,-0.06947020739354193
1687692878960075000,2.821074951171875,0.06327800168991088,0.24238953721523285,0.006203603880479931
1687692878970038000,2.8310380859375,0.26844927662312984,0.2377183305338025,0.04769442891515791
1687692878980002000,2.841001953125,0.262673031309247,0.21863076822608707,0.03906527838818729
1687692878989965000,2.850965087890625,0.15975684671401977,0.18694179075956344,-0.013608327179029583
1687692878999928800,2.8609287109375,0.07816109804511069,0.23195699052810667,-0.1352601188391447
1687692879009892000,2.87089208984375,0.0715554161697626,0.2492752050757408,-0.19738668547160923
1687692879019856000,2.88085595703125,0.12275894918441772,0.15664602121710777,-0.2069680952221155
1687692879029819100,2.890819091796875,0.14077040669322013,0.06858984436243772,-0.21951785325892267
1687692879039783000,2.900782958984375,0.0879074160337448,0.08812047426253557,-0.3076310209978372
1687692879049746000,2.910745849609375,0.024698387926816938,0.11802870579212903,-0.2994282791893929
1687692879059710000,2.9207099609375,-0.04270984543561935,0.15386369702219962,-0.23287783170007167
1687692879069673000,2.9306728515625,-0.09174129510819912,0.15342179847359658,-0.1549214624468237
1687692879079637000,2.940636962890625,-0.1948778444558382,0.1339949212089181,-0.10878456517197191
1687692879089600000,2.95060009765625,-0.37170974461138245,0.18848259046077728,-0.10870989250056445
1687692879099564000,2.96056396484375,-0.5027040226995945,0.22853110773265362,-0.11608710673768073
1687692879109526800,2.97052685546875,-0.49620355476439,0.2530591075286269,-0.12303941009361297
1687692879119490800,2.98049072265625,-0.37323067056834697,0.23053046485632656,-0.12627451955731958
1687692879129453800,2.990453857421875,-0.3536649693548679,0.1612935547620058,-0.19440361454021185
1687692879139417900,3.00041796875,-0.42191082258522505,0.14794950454235076,-0.39414778639078135
1687692879149380900,3.010380859375,-0.433354592141509,0.19075842643827198,-0.5454223802352324
1687692879159345000,3.020344970703125,-0.3166103732019663,0.21602672320753336,-0.5945345669938251
1687692879169308000,3.030307861328125,-0.042079730838537215,0.17533318603038786,-0.5486799207264557
1687692879179272000,3.04027197265625,0.21259528745412826,-0.04660188443809747,-0.38747250987794246
1687692879189235000,3.05023486328125,0.21593349196612835,-0.2090487008884549,-0.3247352274686098
1687692879199199000,3.060198974609375,-0.0032137013494968414,-0.2103846256673336,-0.3562341987883672
1687692879209162000,3.070161865234375,-0.24260113413929937,-0.13091098371893167,-0.3931845673818141
1687692879219126000,3.0801259765625,-0.3538566925346851,-0.09125935681015253,-0.3082355262296274
1687692879229089000,3.090089111328125,-0.35118016680181025,-0.12673428255617616,-0.19434417597055434
1687692879239053000,3.100052978515625,-0.37002865965664383,-0.2779156086266041,-0.06763900991100817
1687692879249016000,3.11001611328125,-0.492624527233839,-0.38529900176376103,0.003119301064312458
1687692879258980000,3.11997998046875,-0.5879448498725891,-0.24455986699163912,-0.01666983364149928
1687692879268943000,3.129943115234375,-0.46936464767754077,0.04125087879896164,-0.08717179523557424
1687692879278907100,3.1399072265625,-0.08105272783339024,0.20961860973089932,-0.046905945418588814
1687692879288870000,3.149869873046875,0.4410287800312042,0.1859174161478877,0.10802819384671747
1687692879298834200,3.159834228515625,0.7864291943877935,0.1443900584951043,0.1795581102490425
1687692879308797000,3.169796875,0.8414467327326536,0.14124913012087345,0.12652688688319175
1687692879318761000,3.179760986328125,0.7155348724752664,0.24930589247494936,0.00008424421735107898
1687692879328724000,3.189723876953125,0.5829360817998648,0.3804349028587341,-0.09935830945055932
1687692879338688000,3.19968798828125,0.5237281060278416,0.5087216755539179,-0.13771843524407595
1687692879348651000,3.209651123046875,0.49316345641613,0.5267892471641302,-0.11633552854079753
1687692879358615000,3.219614990234375,0.4235533290952444,0.46336043882668015,-0.02379431522656232
1687692879368578000,3.229578125,0.32293782265782356,0.47574207375496624,0.0012068915717303751
1687692879378541800,3.239541748046875,0.24439853895008562,0.5446703562915325,-0.013200696226209402
1687692879388505000,3.249505126953125,0.2894043863683939,0.6600061697378754,-0.006378266327641904
1687692879398468900,3.25946875,0.4170248041093349,0.7246525371715427,0.07233944268692284
1687692879408432000,3.26943212890625,0.5437240153521299,0.7203057401388883,0.18612437342945484
1687692879418396000,3.27939599609375,0.5670727422356605,0.6301131357774138,0.24507296761292963
1687692879428359000,3.28935888671875,0.4645353278249502,0.53607729999125,0.24590423080530016
1687692879438323000,3.299322998046875,0.3703501466959715,0.44641251889616246,0.1950844729438424
1687692879448286000,3.309285888671875,0.2924018146187067,0.4136120730563998,0.15572985622026025
1687692879458250000,3.31925,0.24178338801562785,0.4236573739916086,0.14229030973687767
1687692879468213000,3.329212890625,0.161171974208951,0.42712563462406394,0.14971139964833854
1687692879478177000,3.339177001953125,0.042593525579571724,0.3823816530123353,0.1746258414786309
1687692879488139800,3.349139892578125,-0.15175883369743823,0.3074564681485295,0.11698445743620395
1687692879498103800,3.359103759765625,-0.36264264105856414,0.2473059508293867,0.027775165023654697
1687692879508066800,3.36906689453125,-0.5520318249702453,0.21852526202499864,-0.08178944461010396
1687692879518030800,3.37903076171875,-0.6349257967561484,0.2120055048674345,-0.17777027698419987
1687692879527993900,3.388993896484375,-0.5399626169919968,0.13103490235954524,-0.2492334848258644
1687692879537958000,3.3989580078125,-0.40379122852683064,-0.017230244003236292,-0.23351554508171973
1687692879547921000,3.4089208984375,-0.3151929076194763,-0.12797113087475298,-0.26574849323183297
1687692879557885000,3.418885009765625,-0.28120471329987046,-0.13768793050795794,-0.31283596922978757
1687692879567848000,3.428847900390625,-0.20293255609571934,-0.08286737603992224,-0.31940592220462855
1687692879577812000,3.43881201171875,-0.07933657156527042,-0.05907967321723699,-0.24546141894124446
1687692879587775000,3.44877490234375,0.007677695021033286,-0.06786591400206089,-0.17876257595717907
1687692879597739000,3.458739013671875,-0.038947862553596495,-0.10764935059696436,-0.1471087428692728
1687692879607702000,3.468701904296875,-0.14459785602688788,-0.09098229343444109,-0.06380209862925112
1687692879617666000,3.478666015625,-0.2036041717469692,-0.0006195932030677795,-0.0063005614489316936
1687692879627629000,3.488629150390625,-0.11876023493707179,0.11927227611243724,0.12841317555382847
1687692879637593000,3.498593017578125,0.05407645810246467,0.11737111866623162,0.3487632418531924
1687692879647556000,3.50855615234375,0.10496493381857872,0.102752518466115,0.493684338485077
1687692879657520000,3.51852001953125,0.021138065096735954,0.11708119580894708,0.5470484835997224
1687692879667483100,3.528483154296875,-0.005381693038344383,0.12035042673796414,0.6239397809047251
1687692879677447200,3.538447265625,-0.08379121288657188,0.12380056719183921,0.6955668740712105
1687692879687410000,3.548409912109375,-0.24384908837378025,0.07885024935305118,0.7351593912038952
1687692879697374000,3.5583740234375,-0.4717816456913948,0.02061053409129381,0.684561642062664
1687692879707337000,3.5683369140625,-0.7184791092336177,0.047917350950837136,0.5907882566049695
1687692879717301000,3.578301025390625,-0.8901292228370904,0.17057050167322158,0.48027540633566673
1687692879727264000,3.588263916015625,-0.7170902852237224,0.4177922813504934,0.31611250668242574
1687692879737229000,3.59822900390625,-0.46275662771463394,0.3773638248503208,0.4492331292748451
1687692879747191800,3.60819189453125,-0.2947422402650118,0.2550640176102519,0.5254419972736388
1687692879757156000,3.618156005859375,-0.0450385806441307,0.35652152782976626,0.24280038303844628
1687692879767118800,3.628118896484375,-0.05573357765972614,0.2762631652444601,0.16021050876565276
1687692879777083000,3.638082763671875,-0.10105155976712703,0.28736469723433256,0.04978606743216514
1687692879787046000,3.6480458984375,-0.032360885378718375,0.39568800157010553,-0.10467281900420784
1687692879797010000,3.658010009765625,0.0033861353069543835,0.34422260274887084,-0.10852372227869928
1687692879806973000,3.667972900390625,-0.005223287606239318,0.2960197128549218,-0.13101338464748113
1687692879816937000,3.67793701171875,-0.06389350323975086,0.31655688944905996,-0.19435224967915563
1687692879826900000,3.68789990234375,-0.06696458124816418,0.347806890976429,-0.26917116115689277
1687692879836864000,3.697864013671875,0.015641805768013,0.3400461938470602,-0.25769414691813286
1687692879846827000,3.707826904296875,0.1476204187184572,0.24656886872649192,-0.20349318565316496
1687692879856791000,3.717791015625,0.21967092492878434,0.16085516334474087,-0.1781431654172018
1687692879866754000,3.727754150390625,0.10774667349159717,0.053961891812086105,-0.19888550919461995
1687692879876718000,3.737718017578125,-0.05616612385809421,0.05900514667630195,-0.24919172804336995
1687692879886681000,3.74768115234375,-0.20906068358719349,0.11637421658337116,-0.2984278699751943
1687692879896645000,3.75764501953125,-0.25138123744428154,0.14350187748372553,-0.3101121702890843
1687692879906608000,3.767608154296875,-0.16900281396508215,0.13129764494895935,-0.2847977328231558
1687692879916572200,3.777572265625,-0.04720364972352981,0.07608692211955785,-0.27729902936453
1687692879926535200,3.78753515625,-0.03111877636313438,0.045802843014895914,-0.3520750332823023
1687692879936499200,3.797499267578125,0.0035188217759132383,0.09958294851928949,-0.45417186431866136
1687692879946462000,3.8074619140625,0.03568681493103504,0.16183452977091073,-0.5356629105040803
1687692879956426000,3.817426025390625,0.1204769757270813,0.11490034463852643,-0.5657115368850529
1687692879966389000,3.827388916015625,0.21179332342147825,0.03928337811827659,-0.5835954590240493
1687692879976353000,3.83735302734375,0.26873627687096596,0.01970744777172804,-0.6191391756899655
1687692879986316000,3.84731591796875,0.23101181863248346,-0.0114481534704566,-0.6016201048079878
1687692879996280000,3.857280029296875,0.21092063224017618,0.022416706730425357,-0.5873848779022693
1687692880006243000,3.8672431640625,0.22026655273437498,0.0550926494076848,-0.5778370050951838
1687692880016207000,3.87720703125,0.23283377336263655,0.059738429386913774,-0.5028959650751204
1687692880026170000,3.887170166015625,0.24197569571733474,0.06647299833893776,-0.49276729670539493
1687692880036134000,3.8971337890625,0.1848129620373249,-0.007103694525361061,-0.5029733776928856
1687692880046097200,3.90709716796875,0.13122691780030726,-0.0924716552093625,-0.5298093621702864
1687692880056061000,3.91706103515625,0.07660393173098563,-0.09572598083019256,-0.5613494692180305
1687692880066024200,3.927024169921875,0.03851064018011093,-0.034947102479636664,-0.6156834092129021
1687692880075988000,3.936988037109375,0.09447861111760139,0.044342707334458824,-0.6844381618134677
1687692880085951000,3.946950927734375,0.26674773340225216,0.09492606262415647,-0.7079724743969739
1687692880095914200,3.956914306640625,0.5915571951508521,0.07481880187988281,-0.7053210831053555
1687692880105878000,3.9668779296875,0.9767834239393473,0.0930751740604639,-0.7651791933491826
1687692880115841000,3.976841064453125,1.3853840985745192,0.17203735935539005,-0.8663838247861713
1687692880125804800,3.9868046875,1.8976812945276498,0.25216625034213064,-0.9714099142074585
1687692880135768000,3.99676806640625,2.320966328075528,0.21408172661960123,-0.9978534653011709
1687692880145731800,4.00673193359375,2.398283961033821,0.1609539475440979,-0.8333309385553002
1687692880155694800,4.01669482421875,2.1055717652916908,0.09884089798033237,-0.748749452073872
1687692880165659000,4.026658935546875,1.35431149944067,0.07240823360681534,-0.862581144567579
1687692880175622000,4.036621826171875,0.4447223738521337,0.07394289582818746,-1.1498539257347584
1687692880185586000,4.0465859375,-0.18112521343529223,0.35353549775630233,-1.756651798506826
1687692880195549000,4.056548828125,-0.753701229262352,0.3550809736326337,-2.029473444995284
1687692880205513000,4.066512939453125,-1.268870181259513,0.012477204257249831,-1.9321879597634075
1687692880215476000,4.07647607421875,-1.3937474377721548,-0.15256751973181962,-1.9264992466025053
1687692880225440000,4.08643994140625,-1.2169395030140877,-0.11318038897812366,-2.0269673073932526
1687692880235403000,4.096403076171875,-0.741453742107749,-0.06296528247892856,-1.9474230844266711
1687692880245367000,4.106366943359375,0.001522095000743866,0.0011143909826874733,-1.232812633319944
1687692880255330000,4.116330078125,0.8575520643591881,-0.1594634167253971,-0.36513022009059787
1687692880265294000,4.126294189453125,1.857702335360646,-0.17777268813699482,0.5988965981282294
1687692880275257000,4.136257080078125,2.354059034860134,0.08407207565456629,-0.0708398152463138
1687692880285221000,4.14622119140625,2.5184488020718097,-0.20726737042963503,-0.3628191666692495
1687692880295184100,4.15618408203125,2.3749673828542233,-0.18601561582535503,-0.3171833507843315
1687692880305148200,4.166148193359375,2.4560329701691863,-0.34754078738614913,-0.954447527360171
1687692880315111000,4.17611083984375,2.3494658618509767,-0.34629239476025103,-1.1794986840225756
1687692880325075000,4.186074951171875,2.1922107688248156,-0.16953692084178326,-1.6262288905657827
1687692880335038000,4.196037841796875,1.9650217233508824,0.32671909476220606,-1.0030614822730421
1687692880345002000,4.206001953125,2.2051281180649993,0.9784602711103856,-0.8215798566155135
1687692880354965000,4.215965087890625,2.413447043374181,1.053520115204528,-0.3775261758051812
1687692880364929000,4.225928955078125,2.5764018093466756,1.4084135303758083,-0.25394173558205363
1687692880374892000,4.23589208984375,2.0404291387736797,1.3858572690442204,-0.5468441931992769
1687692880384856000,4.24585595703125,1.2735375885486602,1.0779030805066228,-1.0096554737105965
1687692880394819000,4.255819091796875,0.514469279295206,0.5901484973967075,-0.4835787587299943
1687692880404783000,4.265783203125,-1.7751158220887182,0.2073225712155923,0.6995128352180123
1687692880414747000,4.275746826171875,-13.21455290212631,-0.05716386619117111,2.482897596219182
1687692880424710100,4.285710205078125,-19.55469349725246,0.3107764063514769,2.376692891472578
1687692880434673200,4.295673095703125,-9.595892449367046,0.37311650613676756,1.7016738615199922
1687692880444637200,4.30563720703125,-0.7676958523452282,0.09830540286414324,-0.08174436335936189
1687692880454601000,4.31560107421875,2.6169915938884016,0.25099852173700926,0.027379882095754145
1687692880464565000,4.32556494140625,2.6444226216495035,0.5085789060823619,-0.7390043031290173
1687692880474528000,4.335528076171875,0.9710966104745864,0.46506030154712497,-1.7572157159999011
1687692880484492000,4.345491943359375,-0.7515431744456291,0.12583908728212118,-1.9958926624327897
1687692880494455000,4.355455078125,-1.1059440568596124,-0.3958418769575655,-1.6546579894535243
1687692880504419000,4.365419189453125,-0.753262837845087,-0.9231268717493861,-0.884851136303693
1687692880514382000,4.375382080078125,-0.18169161514639853,-1.3847351331464945,-0.5163920640513301
1687692880524346000,4.38534619140625,0.5870511159032583,-1.4092492505475878,-0.6475017852127551
1687692880534308900,4.395308837890625,1.005963925716281,-1.2926691361285745,-0.7029477781027555
1687692880544273000,4.40527294921875,0.9445511333763599,-1.3006611577957867,-0.19061288048774003
1687692880554236000,4.41523583984375,0.7053940022110938,-0.8076124868657439,-0.13580781584978102
1687692880564200000,4.425199951171875,0.6703022305637598,-0.42776210589669644,-0.14018880741298198
1687692880574164000,4.4351640625,0.7367091779291629,-0.19751703385300934,-0.1648351728916168
1687692880584127000,4.445126953125,0.4686410095781088,-0.0421951008465141,-0.08435352294445038
1687692880594090000,4.455090087890625,-0.056714989912509915,0.05436681935116648,0.27700536191388964
1687692880604054000,4.465053955078125,-0.14097382031083106,-0.02714614640511572,0.6196893569186329
1687692880614018000,4.47501806640625,0.17178806076943873,-0.0929732480559498,0.24258257556930182
1687692880623981000,4.48498095703125,0.3591431085050106,-0.09800839267894625,0.1909799602344632
1687692880633945000,4.494945068359375,0.3492208494275808,0.05272957353815436,0.5128406551800668
1687692880643908000,4.504908203125,0.23310908317267892,-0.048076633165776726,0.8473797760434448
1687692880653872000,4.5148720703125,0.14377134207487105,-0.15231073195915668,0.6493937364391982
1687692880663835100,4.524835205078125,0.22148761896193025,-0.28599348194636404,0.24287249842658637
1687692880673799000,4.534798828125,0.5482032065927982,-0.20507610746305435,0.03571925589591265
1687692880683762200,4.54476220703125,1.022383145597577,-0.1675684337804094,0.3215396462976932
1687692880693726000,4.554725830078125,1.3620581680446862,-0.1090775202365592,0.7427250772178172
1687692880703689200,4.564689208984375,1.547276203751564,-0.04092544623687863,1.1838646241471171
1687692880713653000,4.574653076171875,1.3341922559976578,-0.23040117592085152,1.6616694756507873
1687692880723616000,4.584615966796875,0.7616729387938976,-0.4625451769210398,1.7070786431729792
1687692880733580000,4.594580078125,0.6443506277054548,-0.1822986959277652,1.2891256183028221
1687692880743542500,4.60454248046875,1.2321791577219963,0.3528275686826557,0.8363289513275026
1687692880753506300,4.61450634765625,1.8440274457514285,0.5850118651606142,0.3714183604493737
1687692880763469600,4.624469482421875,2.049299842971563,0.5542926460416987,-0.34049013822227714
1687692880773433300,4.634433349609375,1.2670043873876333,0.6511836155306547,-1.4158876656487582
1687692880783396600,4.644396728515625,-0.7502589798539876,0.6957086206294596,-1.6587927511706948
1687692880793360400,4.6543603515625,-1.7125421692758798,0.5812525856923312,-0.9779257258422672
1687692880803323400,4.664323486328125,-1.4762275680601595,0.5996754735462367,-0.5244745404809713
1687692880813287400,4.674287353515625,-0.7257067223995923,0.649107759104669,-0.05264598690792918
1687692880823250400,4.68425048828125,0.16617606610655783,0.10463519040755927,0.42402357695549725
1687692880833214500,4.69421435546875,0.8329752569854258,-0.35779257067888975,0.2625301157072186
1687692880843177500,4.704177490234375,0.7324187872588634,-0.5957858456965536,0.06172828802987933
1687692880853141500,4.7141416015625,-0.046457215270400046,-0.6152685448016971,-0.18881679085120556
1687692880863104500,4.7241044921875,-0.8790969566911458,-0.48154871420711276,-0.30462606702819467
1687692880873068500,4.734068603515625,-0.9450549912452697,-0.3702039431583136,-0.4117072623483836
1687692880883031300,4.74403125,-0.6124737264513969,-0.29207353251241147,-0.2675627030469477
1687692880892995300,4.753995361328125,-0.264424258890748,-0.2352704989902675,-0.09298691125512122
1687692880902958300,4.763958251953125,-0.2530933020591736,-0.0028152766164392233,-0.07032295176535844
1687692880912922400,4.77392236328125,-0.5472855072259902,0.36184316124394533,-0.2652887667655945
1687692880922885400,4.783885498046875,-0.8925649255514144,0.8257751163482665,-0.6565754646368325
1687692880932849400,4.793849365234375,-1.0693822126597166,1.0671402789518236,-0.8685494053222238
1687692880942812400,4.8038125,-0.8439800506025552,0.8104726255372167,-0.8166634430013596
1687692880952776400,4.8137763671875,-0.41445173875093455,0.36552966773696244,-0.685675886914879
1687692880962739500,4.823739501953125,-0.1614887850731611,-0.12151289464607834,-0.4030084075860679
1687692880972703500,4.833703369140625,-0.19555121367275713,-0.5760814666647464,-0.08283654251024127
1687692880982666500,4.84366650390625,-0.4586088603854179,-0.9375022377781569,0.4883399817824363
1687692880992630500,4.853630615234375,-0.6543021128773688,-1.133047240905836,0.9346721289187669
1687692881002593500,4.863593505859375,-0.6719511668145656,-1.2313263402849435,0.7048432364605367
1687692881012557600,4.8735576171875,-0.39550095456540585,-1.0567829163927585,0.28927476863935586
1687692881022520600,4.8835205078125,0.3215571819543838,-0.46332376007810233,-0.0637020723208785
1687692881032484600,4.893484619140625,1.1006769301116466,-0.11290602901615202,-0.42207814197614785
1687692881042447600,4.903447509765625,1.1369564502388239,-0.03612367197833955,-0.8302889405108987
1687692881052411600,4.91341162109375,0.13131985678076744,0.056642363067716354,-0.6065813804771751
1687692881062374700,4.923374755859375,-0.9561001168727874,0.31749051703736186,0.189501412114501
1687692881072338700,4.933338623046875,-1.2045622519999741,0.5276918950922787,0.9644498659364878
1687692881082301400,4.943301513671875,-0.6834194862902164,0.49483160882405935,0.8735985054053366
1687692881092265500,4.953265380859375,0.055361821737885474,0.39984402527101337,0.25310670953001824
1687692881102229200,4.963229248046875,0.5258826537132263,0.30633535516411065,-0.09929627706501633
1687692881112192500,4.973192626953125,0.7017500927507877,0.15664821317419408,-0.22687482842560855
1687692881122156300,4.98315625,0.6521212617069483,-0.0437079165622592,-0.24658143594712018
1687692881132119300,4.993119384765625,0.30479952389895915,-0.15131678901836276,-0.22611540662674232
1687692881142083300,5.003083251953125,-0.045482232758402824,-0.18308233885243533,-0.00822913662502542
1687692881152046300,5.01304638671875,-0.21108839002251623,-0.1758922812178731,0.08991524872481822
1687692881162010400,5.02301025390625,-0.3241980518519878,-0.10495901553444564,0.06813822813741863
1687692881171973400,5.032973388671875,-0.21338439200520515,0.05629851806610822,-0.01303947778251022
1687692881181937400,5.0429375,0.06751169373691082,0.20010536984577773,-0.03500009304219857
1687692881191900400,5.052900390625,0.23857260927557944,0.1906337040800601,-0.058158535217749885
1687692881201864400,5.062864501953125,0.33690205060243605,0.12092501175552606,0.17180961501412093
1687692881211827500,5.072827392578125,0.43449499434828753,0.1055021825004369,0.39305458432659507
1687692881221791500,5.08279150390625,0.5396165800333023,0.3873476779218763,0.29435583476331084
1687692881231754500,5.09275439453125,0.6360048241645098,0.6556273701317608,0.32960513505991546
1687692881241718500,5.102718505859375,0.7062731231331825,0.7402471427969635,0.423105073871091
1687692881251681500,5.112681640625,0.6420984648644924,0.6935351490478963,0.617626579169929
1687692881261645600,5.1226455078125,0.6424322268635034,0.5754338894762099,0.7561820862926543
1687692881271608600,5.132608642578125,0.7143442013859749,0.4400336315140128,0.7153175033975392
1687692881281572600,5.142572509765625,0.6670049425840378,0.25678170824833213,0.6212164203554391
1687692881291535400,5.152535400390625,0.5044359610587358,0.0052010027091950175,0.585823473804444
1687692881301499400,5.16249951171875,0.34153847823143,-0.27817973945550617,0.515835781875439
1687692881311462400,5.17246240234375,0.10464520034492016,-0.5736809083290397,0.5210305740395561
1687692881321426400,5.182426513671875,0.07389525729417801,-0.738903326972574,0.3461020598199218
1687692881331389400,5.192389404296875,0.40728140873014923,-0.6644540159922093,0.07200206395871937
1687692881341353500,5.202353515625,0.7257295187532902,-0.5980477992791682,-0.16090524956416338
1687692881351316500,5.21231640625,0.7945745069205761,-0.7197763094373046,-0.20758275652173905
1687692881361280500,5.222280517578125,0.44531917070150373,-0.893541077107191,-0.17725969711355863
1687692881371243500,5.232243408203125,-0.31285014388561244,-0.8326601266216486,-0.10850063366405666
1687692881381207600,5.24220751953125,-0.8785960214316845,-0.3109006172530353,-0.25605405156090855
1687692881391170600,5.252170654296875,-0.8880079928994178,0.09935096639432013,-0.2881843247878365
1687692881401134600,5.262134521484375,-0.34759529405236245,0.1314694943845272,-0.10720778084192424
1687692881411097600,5.27209765625,0.0050958618342876435,-0.24170908067040145,-0.015715619922894983
1687692881421061600,5.2820615234375,-0.2700391761630773,-0.5655910523105412,0.07172150258482433
1687692881431024600,5.292024658203125,-1.02690968311131,-0.6587213175591081,0.07918683349681087
1687692881440988400,5.301988525390625,-1.59006671320796,-0.5945694556441158,0.057147590909805146
1687692881450951700,5.31195166015625,-1.4518348850816487,-0.5411371406640857,0.0914114238330163
1687692881460915500,5.32191552734375,-0.7943465433835983,-0.5809608362041413,0.3015847265709191
1687692881470878500,5.33187841796875,-0.14657295549213886,-0.5542923172481358,0.7402947082657366
1687692881480842500,5.341842529296875,-0.037031215277314185,-0.343804012010619,0.8939927663974463
1687692881490806500,5.351806640625,-0.2826198407948017,-0.024734993610158563,0.8148458721853792
1687692881500769300,5.361769287109375,-0.4537865547955036,0.35434162650741635,0.8064981689482927
1687692881510733300,5.3717333984375,-0.3755459617733955,0.7323243869736791,0.5446154842991382
1687692881520696300,5.3816962890625,-0.1554419061243534,0.8344155189216137,0.34224195032566784
1687692881530660400,5.391660400390625,0.0706798023790121,0.5869902525614946,0.5131449353562668
1687692881540623400,5.401623291015625,0.07710077533721924,0.2573525669388473,0.6065221611032262
1687692881550587400,5.41158740234375,-0.04516659093797207,-0.053491497821360826,0.7132992954429238
1687692881560550400,5.42155029296875,-0.17190087349414823,-0.3060839376863092,0.7461297710947692
1687692881570514400,5.431514404296875,-0.19040859008729458,-0.37628530889861284,0.35766251455843445
1687692881580477400,5.4414775390625,-0.08154957143962382,-0.3800847011815756,-0.26414054657854136
1687692881590441500,5.45144140625,0.029517186385393142,-0.3947109732314944,-0.8010908300120383
1687692881600404500,5.461404541015625,0.09660802436172962,-0.4485432473145425,-1.249383244370669
1687692881610368500,5.471368408203125,0.2753366980493068,-0.4998776401672512,-1.5625000763684511
1687692881620331500,5.48133154296875,0.5830114851236343,-0.5726897053346037,-1.414661338724196
1687692881630295600,5.491295654296875,0.6829162129431963,-0.4276891137257218,-0.0963371715310961
1687692881640258600,5.501258544921875,0.5041413620263338,-0.18798771961592137,0.3383080084102228
1687692881650222600,5.51122265625,0.1716810932636261,-0.002163315513730049,0.46276433609705414
1687692881660185600,5.521185546875,0.01928688427209854,0.0855033505667001,0.4498529782062396
1687692881670149600,5.531149658203125,0.049397360375523565,0.12337160119004546,0.22240294370856134
1687692881680112400,5.5411123046875,0.16992226689755915,0.05953486963883042,0.1278043594731018
1687692881690076700,5.55107666015625,0.2735048064470291,-0.058726183604449034,0.17962204233072698
1687692881700039400,5.561039306640625,0.2717190920740366,0.019169103111326694,0.038623617301601916
1687692881710003500,5.57100341796875,0.23086042746305466,-0.15671287590824068,0.2774948076649569
1687692881719966500,5.580966552734375,0.11240355938673019,-0.3119849784236401,0.3745248750973493
1687692881729930500,5.590930419921875,0.030945757883787152,-0.30148754980675874,0.29345905032036823
1687692881739894300,5.600894287109375,0.04248948068320751,-0.18505035098977385,0.21587029053680598
1687692881749858000,5.610858154296875,-0.0029874913781881333,-0.0841612883079797,0.09558076367322355
1687692881759821000,5.620821044921875,-0.06067921736836433,-0.02304667519703507,-0.015338037048466502
1687692881769785000,5.63078515625,-0.05348550647199154,0.000015928221493959425,-0.06667619276084005
1687692881779748000,5.640748046875,-0.03964519716799259,-0.0008783172044903039,-0.04549520183783024
1687692881789712100,5.650712158203125,-0.11064473302066326,-0.1016096320413053,-0.18526698941513894
1687692881799675100,5.660675048828125,-0.19557517907023428,-0.2434929684124887,-0.36633181443270296
1687692881809639200,5.67063916015625,-0.1960977416396141,-0.24757556155100463,-0.3633312443772331
1687692881819602200,5.680602294921875,-0.05235913279056549,-0.16867314361929892,-0.29238482695128765
1687692881829566200,5.690566162109375,0.06535188535451888,-0.10134535508193075,-0.289774571387656
1687692881839529200,5.700529296875,0.0926046339392662,-0.020290508356690405,-0.1963759009938687
1687692881849493200,5.7104931640625,0.1219973171621561,0.031807854605838654,-0.021551431670598684
1687692881859457300,5.720457275390625,0.29837270572185515,0.1265627984467894,0.03849606366548687
1687692881869420300,5.730420166015625,0.6168173086136579,0.13209566345885396,-0.0933046719674021
1687692881879384300,5.74038427734375,0.8160182769656181,0.10254165219441055,0.11518270524386316
1687692881889347300,5.750347412109375,0.5058060803681612,0.1077010077189654,0.17720376567523927
1687692881899311400,5.760311279296875,-0.016883330261707304,0.0932783684823662,0.26469715754799544
1687692881909274400,5.7702744140625,-0.34331893190741536,0.11507818542346358,0.35436928169932214
1687692881919238400,5.78023828125,-0.41248774520158765,0.09136610512025654,0.34539752827975895
1687692881929201200,5.790201171875,-0.333427652490139,-0.09308744902014732,0.22800741265211252
1687692881939165200,5.800165283203125,-0.22312135764360427,-0.34082353489510714,0.19110924916993827
1687692881949128200,5.810128173828125,-0.10416238526403904,-0.5661761587221175,0.18253003873191773
1687692881959092200,5.82009228515625,-0.014653963774442672,-0.6612004940889775,0.1625254711771384
1687692881969055200,5.83005517578125,0.1333212597310543,-0.6757618111439049,0.0845008955258876
1687692881979019300,5.840019287109375,0.30215806947946544,-0.5503134767450392,0.03336337695214897
1687692881988982300,5.849982177734375,0.390263638433814,-0.3384098248168826,-0.22730576718877998
1687692881998946300,5.8599462890625,0.4336883541405201,-0.1553939753293991,-0.41661790380887687
1687692882008909300,5.869909423828125,0.6293155556589365,0.08232070194259286,-0.44141039975993335
1687692882018873000,5.879873046875,0.7791635872989893,0.3137922470413148,-0.13226835314463822
1687692882028836400,5.88983642578125,0.7317536013484001,0.42379480970092115,0.0870669100889936
1687692882038800100,5.899800048828125,0.49780397569835183,0.42282516095116734,0.2846705810458399
1687692882048763400,5.909763427734375,0.15704700323343276,0.2517904758322984,0.20783707834267987
1687692882058727200,5.91972705078125,0.0002554360657930374,0.12446911410316824,0.0008922543982975184
1687692882068690200,5.929690185546875,0.0392003760099411,0.10123451511859893,-0.021331888902094216
1687692882078654200,5.939654296875,0.1877835022807121,0.10153371726088226,-0.018728738932684064
1687692882088617200,5.9496171875,0.18653087187111378,-0.026811215362325308,-0.04096862779147923
1687692882098581200,5.959581298828125,-0.06517185261249542,-0.19291648125499486,0.007325776310823857
1687692882108544000,5.9695439453125,-0.33083295982182026,-0.26482977095171806,0.07277162355910986
1687692882118508300,5.97950830078125,-0.2641138777673244,-0.13153335340097547,-0.141167881578207
1687692882128471000,5.989470947265625,0.19700258152484892,0.032825068824365734,-0.18904731167145072
1687692882138435000,5.99943505859375,0.614208002898097,0.08363996784761547,-0.035900055822916326
1687692882148398000,6.009398193359375,0.5764063877701759,0.09399104679636656,0.20184991195816546
1687692882158362000,6.019362060546875,0.19260814595818518,0.16493848713561893,0.24269078518413006
1687692882168326100,6.029326171875,-0.1357259827852249,0.3366810282628983,0.21844507292825727
1687692882178289200,6.0392890625,-0.1561000777721405,0.41503392255306243,0.23569460615385324
1687692882188253200,6.049253173828125,-0.08840952033698558,0.3480407727975398,0.332621523739025
1687692882198216200,6.05921630859375,-0.0335100554138422,0.15105492321178315,0.4382739283651113
1687692882208180200,6.06918017578125,-0.09888006094694136,-0.011333002658188342,0.4921951593732461
1687692882218143200,6.079143310546875,-0.2748638198405504,-0.06939407341741025,0.5815045146267861
1687692882228107300,6.089107177734375,-0.5094102423399687,-0.020780264635011553,0.5814385732511058
1687692882238070300,6.0990703125,-0.5735094972848892,0.12220642986819147,0.39474019932597876
1687692882248034300,6.109034423828125,-0.3489157290011644,0.23324695727340874,0.2741446752531454
1687692882257997300,6.118997314453125,0.11637421658337116,0.23623152604214845,0.2775161244476214
1687692882267961300,6.12896142578125,0.5540396576613188,0.176678974616155,0.2384866114925593
1687692882277924400,6.13892431640625,0.7087585102081299,0.11289419244788586,0.09451835860610008
1687692882287888400,6.148888427734375,0.554371081572771,0.09098075906448065,-0.01369863581098616
1687692882297851400,6.158851318359375,0.014300912553071974,0.1356328246090561,-0.055405916607938706
1687692882307815400,6.1688154296875,-0.7553174322873354,0.29268260432146487,-0.05427240079967305
1687692882317778200,6.178778076171875,-1.2012293081849812,0.41785109886564314,-0.053970677906740455
1687692882327742500,6.188742431640625,-0.9866413856089115,0.4192160305432975,0.14151450305879115
1687692882337705200,6.198705322265625,-0.5016244107693434,0.31806122959740457,0.2658522276009433
1687692882347669200,6.208669189453125,-0.28407822290956974,0.11316219573430716,0.25993155058138073
1687692882357632300,6.21863232421875,-0.4152513646960258,-0.066363911941275,0.20395356970652936
1687692882367596000,6.228595947265625,-0.5648036282598972,-0.1800163754105568,0.0638472529452294
1687692882377559300,6.238559326171875,-0.5307704257547855,-0.13138261981867252,-0.03732683722302317
1687692882387523000,6.248523193359375,-0.2984527852207422,-0.0762040456932038,0.03874832139350474
1687692882397486300,6.258486328125,-0.10510580359399319,-0.03334953108988702,0.1509033128466457
1687692882407450000,6.2684501953125,-0.24302374346554279,0.03803118610009551,0.34859051563479004
1687692882417413000,6.2784130859375,-0.6481412521600722,0.10717559560537337,0.5287167080953717
1687692882427377200,6.288377197265625,-0.8823936601489781,0.19477745282128453,0.5347763003952801
1687692882437341200,6.298341064453125,-0.7246797174394131,0.22753237901888787,0.4705306957822293
1687692882447304200,6.30830419921875,-0.16579788044393062,0.13603658310435712,0.22234235436143351
1687692882457268200,6.318268310546875,0.2356149285137653,0.02810476230420172,-0.040277247993834316
1687692882467231200,6.328231201171875,0.23829320781230925,-0.022261881494894623,-0.30556787792295215
1687692882477195300,6.3381953125,0.011740122154355048,-0.017297756281495092,-0.1895447763321921
1687692882487158300,6.348158203125,-0.1850391720086336,0.1024481286920607,-0.01878941961135715
1687692882497122300,6.358122314453125,-0.1322182669252157,0.20057035700902343,0.1570676441626623
1687692882507085300,6.368085205078125,0.046693362113833424,0.21909758202023802,0.3544177239509299
1687692882517049300,6.37804931640625,0.1599859792947769,0.18728804691396653,0.33050489691123364
1687692882527012000,6.38801220703125,0.30231413682401176,0.15805347686223684,0.2616259334091097
1687692882536976400,6.397976318359375,0.5068740018606186,0.08912548658661544,0.1972454869026318
1687692882546939100,6.407939208984375,0.6340542746186256,0.04716835921443999,0.09284921981748193
1687692882556903200,6.417903076171875,0.5292097523093223,0.046444574984535573,-0.028841588678769764
1687692882566866200,6.4278662109375,0.16607260573208332,0.11487462567538022,-0.10138981527816504
1687692882576830200,6.437830322265625,-0.30430794098973274,0.21264570246711373,-0.11016414642948656
1687692882586793200,6.447793212890625,-0.39359541320502756,0.3178163879908621,-0.13844254826754332
1687692882596757200,6.45775732421875,-0.02483867318034172,0.3080942545954138,-0.12179061560891567
1687692882606720300,6.46772021484375,0.4410276109874248,0.1984625710748136,-0.0004519084859639406
1687692882616684300,6.477684326171875,0.6442483363747596,0.07162687397077679,0.13695559764541684
1687692882626647300,6.487647216796875,0.6479787550747395,-0.1188406066969037,0.2052168311079964
1687692882636611300,6.497611328125,0.5922983689069747,-0.2078240544643253,0.18326474621463565
1687692882646574300,6.50757421875,0.6098702659547328,-0.06345715764909983,0.05112202874366194
1687692882656538400,6.517538330078125,0.698694796833396,0.22385792828984558,0.09171506468839943
1687692882666501400,6.52750146484375,0.6957184113711118,0.45126741158142686,0.05967826016489416
1687692882676465200,6.537465087890625,0.48505847589373585,0.5471500442780554,0.07893708738628774
1687692882686429200,6.54742919921875,0.28331425279974937,0.5017457721266895,0.05221493854690343
1687692882696392200,6.55739208984375,0.3068658087790012,0.43714127107337114,0.08704950229646638
1687692882706356200,6.567356201171875,0.37928339473605155,0.23315957125090062,0.14672555223796516
1687692882716319200,6.5773193359375,0.24744155990779398,0.03632525896504521,0.21597656392287462
1687692882726283300,6.587283203125,-0.15978198115527628,-0.048835415643826124,0.20542963360846042
1687692882736246000,6.59724609375,-0.571911414438486,0.1442085644483566,-0.16973938461132346
1687692882746209000,6.607208984375,-0.4854460139065981,0.35900223872959613,-0.044670258788391946
1687692882756172300,6.61717236328125,0.018826865544915198,0.25076807398200035,0.5153386460082605
1687692882766136000,6.627135986328125,0.4929705641925335,0.08678089622184634,0.26259163663610813
1687692882776099300,6.637099365234375,0.5131219563394784,-0.08075294116921722,0.32024920462835577
1687692882786063000,6.64706298828125,0.028414778101444244,-0.2951055936846882,0.27275117506813257
1687692882796026000,6.657026123046875,-0.6954337492108345,-0.40198885527998207,0.14535850166846065
1687692882805990100,6.666990234375,-0.6513531999439001,-0.23287381311208008,0.5336213582064956
1687692882815953200,6.676953125,0.6635428194314241,-0.04376140031516552,0.6818517255168408
1687692882825917200,6.686917236328125,1.3963696029692887,-0.002363075869530439,0.3744826433908194
1687692882835880200,6.696880126953125,0.7975888863056898,0.09733239311352372,0.06047463470697403
1687692882845844200,6.70684423828125,-0.2875070283144712,0.3054845104884356,-0.2010093877471052
1687692882855807200,6.71680712890625,-0.9182400495558977,0.48276634636856613,-0.3487300702359527
1687692882865771300,6.726771240234375,-0.9881886150509118,0.48534006931409235,-0.4903394850365817
1687692882875734300,6.736734375,-0.8679764277398586,0.3048619216106832,-0.39825441799201067
1687692882885698300,6.7466982421875,-0.8119792307078838,0.0798623490050435,-0.12964710126295684
1687692882895661000,6.7566611328125,-0.7089823820918798,-0.07568433266803622,-0.18427454431168733
1687692882905625300,6.766625244140625,-0.38325229836702346,-0.08543474230989813,-0.27439554474167527
1687692882915589400,6.77658935546875,0.0696212332367897,-0.015217954332754016,-0.3662454147908836
1687692882925552000,6.78655224609375,0.5464794515401125,0.0667966042701155,-0.3521275306545198
1687692882935516200,6.79651611328125,0.8173153310388326,0.12091200614348054,-0.33313641445860265
1687692882945479200,6.806479248046875,0.6490963609278202,0.13982691529802976,-0.3307456833971664
1687692882955443200,6.816443115234375,0.2635667652785778,0.1759174156591296,-0.348638665625453
1687692882965406200,6.82640625,-0.11086451325118542,0.25651173220053314,-0.2542400609415024
1687692882975370200,6.836370361328125,-0.24843290903270243,0.2703352365002036,-0.14116194502776488
1687692882985333200,6.846333251953125,-0.33478082066476345,0.22302534992322323,0.05532903371313586
1687692882995297300,6.85629736328125,-0.3200713273108005,0.07702091503404081,0.2855052965706214
1687692883005260300,6.86626025390625,-0.23792671258747577,-0.012887611689046025,0.4946768566537648
1687692883015224300,6.876224365234375,-0.27342414242625235,-0.002761646733060479,0.4972455380979925
1687692883025187300,6.886187255859375,-0.44501521931886673,0.05910962996408343,0.3867694396425038
1687692883035151400,6.8961513671875,-0.47963878893256184,0.054757279973477124,0.4017391913678497
1687692883045114400,6.9061142578125,-0.422045262619853,0.13548311394006013,0.23102928122393784
1687692883055078100,6.916078125,-0.0659393298536539,0.2150562707401812,0.09430964775886386
1687692883065041400,6.92604150390625,0.43805765526592727,0.15717435594014822,-0.10732698677480221
1687692883075005200,6.936005126953125,0.6691951461046933,0.07594049938619137,-0.15477463785465806
1687692883084968400,6.945968505859375,0.5278308651715516,0.03726473177224397,-0.18858104586657135
1687692883094932200,6.95593212890625,0.13295476450622082,0.030282763930410145,0.08037946821432561
1687692883104895200,6.965895263671875,-0.3293868526667356,0.12699059540480376,-0.003923731048684567
1687692883114859300,6.975859375,-0.5802396823227405,0.22535481578409672,0.13598505384651943
1687692883124822000,6.985822021484375,-0.4733434881806373,0.3058930912893265,0.5684684709103778
1687692883134786000,6.9957861328125,-0.17478139736652373,0.24823987067863343,0.8021509335242212
1687692883144750000,7.00575,-0.021291794353723525,0.18329495868980883,0.39273791959285737
1687692883154713000,7.015713134765625,-0.22361177150905132,0.17054923968948424,-0.028852402333728967
1687692883164677000,7.025677001953125,-0.27362054178118705,0.172035605789721,-0.13625154102928935
1687692883174640000,7.03564013671875,0.021199439895153046,0.21375907053649423,-0.35293285568803545
1687692883184604200,7.045604248046875,0.30208558876514435,0.20962474721074104,-0.4530805619506165
1687692883194567200,7.055567138671875,0.5133867447555065,0.18455840275436639,-0.4247550695678219
1687692883204531200,7.06553125,0.7361474523931741,0.09565503448583185,-0.3469773448171094
1687692883214494200,7.075494140625,0.9938362655490636,-0.007450096810236573,-0.29300913286209107
1687692883224458200,7.085458251953125,1.1686363676160574,-0.08266118594333528,-0.3606835794126615
1687692883234421200,7.095421142578125,1.0056816016435624,-0.07308876321688294,-0.3613925679322332
1687692883244385300,7.10538525390625,0.6422755749970674,0.10053696130849421,-0.36101891231425104
1687692883254348300,7.115348388671875,0.19788579410016535,0.22735965280048548,-0.2768572586800903
1687692883264312300,7.125312255859375,0.044544075125455856,0.22292773476764557,-0.18425532815456389
1687692883274275300,7.135275390625,0.10220131432414055,0.07120075751319527,-0.25281558109633623
1687692883284239400,7.1452392578125,0.05754501099586486,-0.04926540455892682,0.037109650808386505
1687692883294202400,7.155202392578125,-0.050045595151185986,-0.0544472641762346,0.29813155390974133
1687692883304166400,7.16516650390625,-0.06788871035575866,0.008032572873309255,0.33889198231063783
1687692883314129200,7.175129150390625,0.017773557099699973,0.10388641786687075,0.4114005710193887
1687692883324093400,7.185093505859375,0.3138420775324106,0.2532508307084441,0.43693599429223684
1687692883334056200,7.19505615234375,0.826277805173397,0.385057082766667,0.3675853216251358
1687692883344020200,7.205020263671875,1.303573830372095,0.41146220154613256,0.11248710948433727
1687692883353983200,7.214983154296875,1.4155389983415603,0.3354490753151476,-0.2039382990721613
1687692883363947300,7.224947265625,1.1086112302422524,0.1610323465425521,-0.5294632886789739
1687692883373911000,7.2349111328125,0.5903425586640835,0.0006042495034635066,-0.7503513343125582
1687692883383874300,7.244874267578125,0.027379005312919615,-0.010908347505331038,-0.6651799191139638
1687692883393838000,7.254838134765625,-0.42466450520753857,0.058842284264788026,-0.5878828174870461
1687692883403801000,7.264801025390625,-0.709164752921462,0.14382957506813107,-0.7068846060950309
1687692883413765000,7.27476513671875,-0.8515788351684809,0.1338633307185024,-0.7040776589155197
1687692883423728000,7.28472802734375,-0.9129583097606897,0.07840995823964476,-0.6137620857615024
1687692883433692200,7.294692138671875,-0.7821475715458392,0.012978358712419867,-0.6445856055051088
1687692883443655200,7.3046552734375,-0.5377724134713411,-0.0317527634177357,-0.5004668382320553
1687692883453619200,7.314619140625,-0.21322364848554134,-0.06741210581995546,-0.4708025715261697
1687692883463582200,7.324582275390625,-0.07716857987642288,-0.15387414535097776,-0.41049865374360234
1687692883473546200,7.334546142578125,-0.1748094544172287,-0.2014789962865412,-0.3159386844854802
1687692883483509200,7.34450927734375,-0.5007295077562331,-0.18117270583882927,-0.2496745613905601
1687692883493473300,7.354473388671875,-0.8506868547648191,-0.07235971828997134,-0.23013302650395778
1687692883503436300,7.364436279296875,-0.851945914915204,-0.009330576794594526,-0.23303873961651697
1687692883513400300,7.374400390625,-0.6221347042441367,-0.03364771031886339,-0.1349360745165497
1687692883523363000,7.384363037109375,-0.3426297805994749,-0.10241006170399486,-0.11926979189440608
1687692883533327400,7.394327392578125,-0.2067319483786821,-0.17025997441932558,-0.0007473660348914563
1687692883543290000,7.4042900390625,-0.3024889088690281,-0.1078117015518248,0.19911343619897962
1687692883553254100,7.414254150390625,-0.36904257122874257,0.11338709053136407,0.2902680539930239
1687692883563218200,7.42421826171875,-0.3139303403377533,0.37203839204385875,0.26571698384871706
1687692883573181200,7.43418115234375,-0.2083580882757902,0.6228126035057008,0.2706061989286914
1687692883583145200,7.444145263671875,-0.14759353071153164,0.7110070197872818,0.17240122423171997
1687692883593108200,7.454108154296875,-0.12517302458882332,0.543817611919716,0.05370243715830147
1687692883603072300,7.464072265625,-0.09906535438597201,0.286388911004737,0.021527941197156904
1687692883613035300,7.47403515625,-0.041971009767055506,0.05024316354990005,-0.0011987447978928684
1687692883622999300,7.483999267578125,-0.050474049696326254,-0.15367138932049274,-0.08791366311144083
1687692883632962300,7.49396240234375,-0.15563772095739842,-0.2852501162331551,-0.18057764428881928
1687692883642926300,7.50392626953125,-0.23783961882591245,-0.2729019451830536,-0.22553313149306922
1687692883652889300,7.513889404296875,-0.08256079430878162,-0.1730488014202565,-0.2367246067887172
1687692883662853000,7.52385302734375,0.20706687942147253,-0.030265885860845446,-0.24944895420745014
1687692883672816400,7.53381640625,0.2994254296451807,0.1159140517257154,-0.1438208437724039
1687692883682780200,7.5437802734375,0.16379823105931282,0.2187814287431538,-0.11600406809672713
1687692883692743400,7.553743408203125,0.021648352706432342,0.29675379928313195,-0.1657592289339751
1687692883702707200,7.563707275390625,0.14076456147432326,0.3114752753358334,-0.21446013147793708
1687692883712670200,7.573670166015625,0.43133682257831096,0.24650902829803525,-0.25387287159692495
1687692883722634200,7.58363427734375,0.5826701243400574,0.09251666339486837,-0.27735585585199296
1687692883732597000,7.593596923828125,0.3981915088236332,-0.02970912876091897,-0.2833815824149176
1687692883742561300,7.603561279296875,0.015201660785079002,-0.003325856487080455,-0.23483619922623036
1687692883752525300,7.613525390625,-0.22950141406953334,0.1140934121698141,-0.2545503689996898
1687692883762488300,7.62348828125,-0.12603285628855226,0.20980244186520575,-0.34335455121006814
1687692883772452400,7.633452392578125,0.2611006674259901,0.20339929682463406,-0.3998439522057771
1687692883782415400,7.643415283203125,0.5626800602346659,0.12973200306743382,-0.3619099794024601
1687692883792379400,7.65337939453125,0.5032891291111707,0.039598508482053874,-0.34805724900830537
1687692883802342400,7.66334228515625,0.2313677924633026,-0.02367043311856687,-0.40931284149251873
1687692883812306400,7.673306396484375,0.03406476668715477,0.059147550821676845,-0.46169959294237195
1687692883822269400,7.68326953125,0.09128069185912609,0.15193499398194252,-0.5124129678199068
1687692883832233500,7.6932333984375,0.3238397399336099,0.1617600032299757,-0.5013448266429826
1687692883842196500,7.703196533203125,0.4088946891456842,0.09843282863609493,-0.4173107814438641
1687692883852160500,7.713160400390625,0.20685586701929567,0.045022798553109165,-0.29020123583450913
1687692883862123300,7.723123291015625,-0.06223229202926159,0.030475217762589452,-0.23111736136619002
1687692883872087300,7.73308740234375,-0.1538560982376337,0.10816504503414034,-0.29706889311429113
1687692883882050300,7.74305029296875,0.0678349343419075,0.11362447948381305,-0.3448118008136749
1687692883892014300,7.753014404296875,0.42106209680140017,0.05476539021469652,-0.34827505647744983
1687692883901977300,7.762977294921875,0.6072293960571289,-0.038337475570291275,-0.24633688660152256
1687692883911941400,7.77294140625,0.5893991403341293,-0.08808657199293375,-0.15221136323790996
1687692883921904400,7.782904296875,0.4370931941479444,-0.04499488763287663,-0.060500426735356445
1687692883931868400,7.792868408203125,0.2128898864865303,0.0976002502694726,-0.03760890556741506
1687692883941832200,7.802832275390625,0.050396308284997936,0.19795337944366037,-0.08839994879104196
1687692883951795500,7.81279541015625,0.08828326360881328,0.18534663052260875,-0.13553740141056478
1687692883961759200,7.82275927734375,0.22146306904256344,0.12782967657744884,-0.12883249694444238
1687692883971722200,7.83272216796875,0.3574515021562576,0.04027114704661071,-0.14062829480879008
1687692883981686300,7.842686279296875,0.37570612077116966,-0.054167570452019566,-0.20453673988934606
1687692883991649300,7.852649169921875,0.22615444172918794,-0.0837096720829606,-0.24164887491576373
1687692884001613300,7.86261328125,-0.010237900897860527,0.031054332824796436,-0.2643404165321961
1687692884011576300,7.872576416015625,-0.1025344918012619,0.08418247722648084,-0.29174539653658865
1687692884021540400,7.882540283203125,0.055068976271152495,0.10956256380714476,-0.31563535415735094
1687692884031503400,7.89250341796875,0.3860679403096437,0.07845218994617462,-0.2112534078584984
1687692884041467400,7.90246728515625,0.533132478711009,-0.014678732889518141,-0.09140413557570427
1687692884051430400,7.912430419921875,0.3429255486756563,-0.10219101212583481,-0.07233436465300619
1687692884061394400,7.92239453125,-0.07344517543911934,-0.06727605835013091,-0.08613821440413594
1687692884071357200,7.932357177734375,-0.4413958597779274,0.0876008343026042,-0.13242840254455804
1687692884081321200,7.9423212890625,-0.4585059845328331,0.18966544356979428,-0.2557566395169124
1687692884091284200,7.9522841796875,-0.14619418530762196,0.15056399788968264,-0.22763138241395353
1687692884101247200,7.962247314453125,0.1869867989450693,-0.015088263538479803,-0.15099069886915384
1687692884111211300,7.972211181640625,0.27741818049848077,-0.17385675680227577,-0.011580218884907663
1687692884121174300,7.98217431640625,0.12701368401944638,-0.2173631594430655,-0.023513014067150652
1687692884131138300,7.99213818359375,-0.07463467748463154,-0.06708915747590363,0.010996098854020237
1687692884141101300,8.002101318359376,-0.2089028626769781,0.13862068131342528,-0.003427453698031604
1687692884151065300,8.0120654296875,-0.25315584590137,0.24533918080106376,-0.06177676681410521
1687692884161028400,8.0220283203125,-0.23043314196169376,0.2435807928264141,0.038792379730939866
1687692884170992400,8.031992431640624,-0.18228373582065105,0.17753522611930966,0.11266586358472704
1687692884180955400,8.041955322265625,-0.17934592880308628,0.06686119393892585,0.08498170131277293
1687692884190919400,8.05191943359375,-0.17550386642217636,-0.0451148607507348,0.034307124075666065
1687692884200882400,8.06188232421875,-0.1422182674139738,-0.09055888039059937,0.014051723564974963
1687692884210846500,8.071846435546876,-0.1637602371364832,-0.08823504055291413,-0.0010648527525365353
1687692884220809500,8.0818095703125,-0.23557342745959758,-0.06517587120048701,0.007162512040510773
1687692884230773500,8.0917734375,-0.35761692185103894,-0.0012106178987771271,0.06084430826958268
1687692884240737500,8.101737548828124,-0.42452714256346225,0.10523271790929138,0.07715444175321608
1687692884250700300,8.1117001953125,-0.2423305005043745,0.1287401424858719,0.08147614087723196
1687692884260664600,8.12166455078125,0.05277648141980171,0.08318133735992014,0.11905234975144266
1687692884270627300,8.13162744140625,0.3116869453251362,-0.01181121462918818,0.1545447380889207
1687692884280591400,8.14159130859375,0.3258201000958681,-0.08154007295891642,0.17458708037082105
1687692884290554400,8.151554443359375,0.2240127535253763,-0.04425649035573005,0.22729992196988313
1687692884300518400,8.161518310546874,0.08560673787593841,0.1114153520669788,0.23400296327248216
1687692884310481400,8.1714814453125,-0.06995557975769043,0.29786833639629184,0.2662450445771217
1687692884320445200,8.181445068359375,-0.13734861555099487,0.36701033474877476,0.24713936209082601
1687692884330408400,8.191408447265625,-0.15703881992697716,0.26089389280751346,0.33098562963288275
1687692884340372200,8.201372314453126,-0.18564006051123141,0.10483027458824216,0.3860126664584502
1687692884350335200,8.211335205078125,-0.3807674958139658,-0.02536072429306805,0.38983047118093817
1687692884360299300,8.22129931640625,-0.7740788313806056,-0.09267455737031996,0.3851390619616955
1687692884370262300,8.23126220703125,-1.130419157424569,-0.10677147178389132,0.32966303925961254
1687692884380226300,8.241226318359375,-1.1590250741839407,-0.15018866177126763,0.1773519419742748
1687692884390189300,8.251189208984375,-0.7022972052395343,-0.18484832561165093,0.07719660039450973
1687692884400153300,8.2611533203125,-0.030257191097736356,-0.2500076840687543,0.11108699689544736
1687692884410117400,8.271117431640626,0.3992974242389202,-0.2784176398646086,0.2034832487810403
1687692884420080400,8.281080322265625,0.3642974225282669,-0.22034992016889154,0.3619873554876074
1687692884430045400,8.29104541015625,0.050072483158111566,-0.06924056335613131,0.4147473606966436
1687692884440008400,8.301008544921874,-0.25340017605125903,0.18810016701444982,0.4021916478430852
1687692884449972500,8.310972412109376,-0.2429536008387804,0.4834596623949706,0.3895643675906583
1687692884459936300,8.320936279296875,0.06689210053384304,0.6313778950162231,0.39800522900391366
1687692884469899500,8.3308994140625,0.3113631201982498,0.5531633862834423,0.5788120972050353
1687692884479863300,8.34086328125,0.22854104460477828,0.3216332428652793,0.7051262181203812
1687692884489826600,8.35082666015625,-0.0685796152293682,0.09609050329364836,0.7238743924058973
1687692884499790300,8.360790283203125,-0.2587953130930662,0.057666956875100726,0.5685617386844009
1687692884509753300,8.37075341796875,-0.1609925259888172,0.04489471519403159,0.45135300750564783
1687692884519717400,8.38071728515625,0.14860007740557193,-0.020732626101002096,0.46543691630717365
1687692884529680100,8.39068017578125,0.22981004162728785,-0.1885117434900254,0.4560298402102664
1687692884539644200,8.40064404296875,0.04698445401489734,-0.2965739126715809,0.47254386223554606
1687692884549607200,8.410607177734375,-0.19333646023273468,-0.15692812609411774,0.5041245204893872
1687692884559571200,8.4205712890625,-0.2654226222783327,0.04574176047742366,0.3569267476297915
1687692884569534200,8.4305341796875,-0.023283260431885718,0.11141681337170302,0.20564627203382552
1687692884579498200,8.440498291015626,0.24990122801959513,0.04174428833909333,0.21310952058658003
1687692884589461200,8.450461181640625,0.3042524114102125,-0.009812295896932482,0.34451164882332086
1687692884599425300,8.46042529296875,0.2118605434387922,0.03857574130557477,0.41989977502375836
1687692884609388300,8.47038818359375,0.16811317164897918,0.16149850274957717,0.4470943271478638
1687692884619352300,8.480352294921875,0.2374766307324171,0.26771650536917146,0.3497483073677867
1687692884629316400,8.49031640625,0.41637481576800345,0.3067820760183036,0.2796267599260434
1687692884639279400,8.500279296875,0.6024515141308308,0.23129202381335198,0.29860227669402956
1687692884649243400,8.510243408203126,0.6675707597732543,0.15547756195962428,0.36883576007764785
1687692884659206400,8.520206298828125,0.644836949917674,0.14040266935937107,0.3991207524977624
1687692884669170400,8.53017041015625,0.5242062449336051,0.14516681502126155,0.3640431920388713
1687692884679133400,8.540133544921876,0.3821113116383552,0.1483953486137092,0.35427740216478704
1687692884689097500,8.550097412109375,0.3164297559380531,0.10301533412076533,0.2967240617319941
1687692884699060500,8.560060546875,0.32679625165164466,0.0018245120134204626,0.3252457708066329
1687692884709024500,8.5700244140625,0.35845921789407725,-0.05691599237732589,0.3735456182690337
1687692884718987500,8.579987548828125,0.42138241479694843,-0.0756383746344596,0.4209109613602981
1687692884728951600,8.58995166015625,0.4211702333509922,-0.08019391904696822,0.34657230768017466
1687692884738914800,8.599914794921874,0.3953098159074783,-0.013023366897925734,0.2291549021868035
1687692884748878600,8.609878662109375,0.3012561522036791,0.12765833859853445,0.15964019806440918
1687692884758841900,8.619841796875,0.26898119154274464,0.2325613861620426,0.12816077169533818
1687692884768805600,8.6298056640625,0.36600130383670326,0.2560471103634685,0.08720639162492007
1687692884778769700,8.639769775390626,0.4777367547035217,0.21343115375638008,0.18671846686508506
1687692884788732400,8.649732421875,0.46987318172156806,0.15565890987589953,0.21215042976345866
1687692884798696700,8.65969677734375,0.38547932676672936,0.11605784411057829,0.22272640350926667
1687692884808659500,8.669659423828126,0.2384861000359058,0.10731383503228425,0.23266082794852552
1687692884818623500,8.67962353515625,0.013923895934224127,0.13264533323086797,0.21348690253160893
1687692884828586500,8.68958642578125,-0.2128460473448038,0.14437208444699645,0.14738931337632238
1687692884838550500,8.699550537109374,-0.2845616225123405,0.11361286211125551,0.13594934321232138
1687692884848513500,8.709513427734375,-0.2058534119784832,0.003331482510268688,0.15091219027284533
1687692884858477600,8.7194775390625,-0.0724795452773571,-0.1432761059038341,0.15367106052692978
1687692884868440600,8.729440673828124,0.03488485089838505,-0.23349062983617186,0.10758874298352747
1687692884878404600,8.739404541015626,0.05664250919818878,-0.19892332045435904,0.15870821444392202
1687692884888367600,8.74936767578125,0.037297757259011265,-0.07516410818621516,0.17922537116333842
1687692884898331600,8.75933154296875,-0.020051438903808592,0.09526223577596246,0.18240067673120647
1687692884908294700,8.769294677734376,-0.13502572556138037,0.2106318053614348,0.22860099463108927
1687692884918258700,8.7792587890625,-0.2849889080137014,0.2128217896863818,0.30184122208263725
1687692884928222700,8.78922265625,-0.3883592661172151,0.17900544480234384,0.3203209181576967
1687692884938185700,8.799185791015624,-0.4095060990422964,0.11687727073468267,0.28526776148770006
1687692884948149800,8.809149658203125,-0.3022024931430817,0.03574621696807444,0.24489742838293313
1687692884958112800,8.81911279296875,-0.18234803322851656,-0.051137262845411896,0.2564176972415298
1687692884968076800,8.829076904296874,-0.20902561227381228,-0.12143581082187592,0.2564963519683108
1687692884978039800,8.839039794921876,-0.2944979101151228,-0.11174619145654141,0.24219653539378194
1687692884988003800,8.84900390625,-0.30616321346759795,-0.018658669371157885,0.20898067715354263
1687692884997966600,8.858966552734374,-0.24267770650684833,0.07045885310471058,0.314325331004709
1687692885007931000,8.868930908203126,-0.10826572892963886,0.0241897808175534,0.26201179092153903
1687692885017893600,8.8788935546875,-0.052315293648838995,-0.0008086129691451787,0.301280738655664
1687692885027857700,8.888857666015625,-0.13851298315525054,0.01835274522714317,0.3291503404971212
1687692885037820700,8.898820556640626,-0.2947714663594961,0.05349756223596632,0.2643863015005365
1687692885047784400,8.908784423828125,-0.38888007512092587,0.11250351262986659,0.2624216503640637
1687692885057748500,8.91874853515625,-0.34913609375357624,0.15155856188498437,0.1543787338722497
1687692885067711500,8.92871142578125,-0.23568682470619678,0.15230017403252422,0.15809472218807785
1687692885077675500,8.938675537109376,-0.15675006611347198,-0.007004618065059184,0.2239311396565288
1687692885087638500,8.948638427734375,-0.12020283496081828,-0.11736980349197983,0.2672490705205127
1687692885097602600,8.9586025390625,-0.08655132524967193,-0.13604827354215085,0.1741647267729044
1687692885107565600,8.968565673828126,-0.12230594471991062,-0.025077011980861423,0.16064827912840993
1687692885117529600,8.978529541015625,-0.32946810120940206,0.11564524472169578,0.18400076887160538
1687692885127492600,8.98849267578125,-0.5009393511146306,0.13776019202657044,0.11975081687700002
1687692885137456600,8.99845654296875,-0.4222323096245527,0.11417809477858244,0.049551016567274925
1687692885147419600,9.008419677734375,-0.20674246977269647,0.11325995702035724,0.09639840019904077
1687692885157383700,9.0183837890625,0.01257481941282749,0.03225530611239374,0.05700253814961761
1687692885167346700,9.0283466796875,0.1609533630222082,-0.03682663261592388,0.03963051105551421
1687692885177310700,9.038310791015626,0.1882248163074255,-0.0007869125939905643,0.06639441667739301
1687692885187274800,9.048274658203125,0.1101157407104969,0.02963781709037721,0.09167352710161357
1687692885197237800,9.05823779296875,-0.025002339309453964,0.05368935848101973,0.08035265327263623
1687692885207201800,9.068201904296876,-0.13974983147382736,0.16370763016641138,0.08968699292689561
1687692885217164800,9.078164794921875,-0.18534604600071905,0.24592647916972635,0.07159435994066297
1687692885227128800,9.08812890625,-0.21285598421692847,0.17802439787574112,-0.020622078398615122
1687692885237091600,9.098091552734376,-0.28777123220860956,0.0491626748368144,-0.04603318117205053
1687692885247055600,9.1080556640625,-0.28361060539782046,-0.0850679548241198,-0.06193232270199805
1687692885257018600,9.1180185546875,-0.14702303734719752,-0.09993753411062062,-0.06206069832202047
1687692885266982700,9.127982666015624,0.0005786766707897186,-0.09594378829933703,-0.03593669803887605
1687692885276945700,9.137945556640625,0.05413374124765396,-0.07320939392186701,-0.058436808736436065
1687692885286909700,9.14790966796875,0.036762919729948045,0.0015291823286563157,-0.110492501601018
1687692885296872700,9.157872802734374,0.03348901262581348,0.09609422962069511,-0.05303999119419604
1687692885306836500,9.16783642578125,0.15402853219509124,0.10046506511606275,0.03344265273343772
1687692885316799700,9.1777998046875,0.25207389588356016,0.056865942690521476,0.07561356898676604
1687692885326763500,9.187763427734374,0.1734142006665468,0.05348287612348795,0.07460800867341458
1687692885336727600,9.1977275390625,0.009696633628010749,0.09368417280428111,-0.016073365585692227
1687692885346690600,9.207690673828125,-0.0850929431349039,0.1509277166355401,-0.08238003091439604
1687692885356654600,9.217654541015625,0.052371992272138596,0.1802324293140322,-0.1175316064575687
1687692885366617600,9.22761767578125,0.3213578599900007,0.08763882822543383,-0.08342248917203396
1687692885376581600,9.23758154296875,0.49418227806985376,-0.0046462914358824485,-0.0038154301023110744
1687692885386544600,9.247544677734375,0.4983008193045854,-0.0736259388335049,-0.059229566549323494
1687692885396508700,9.2575087890625,0.3136497698307037,-0.037623262886330486,-0.11298402615580708
1687692885406471700,9.2674716796875,0.16470307094454764,0.0370326765820384,-0.11421239890698343
1687692885416435700,9.277435791015625,0.05470072748064995,0.12475246108919381,-0.2452921633215621
1687692885426398700,9.287398681640624,0.14761574254333973,0.14086013080328702,-0.28376802444923666
1687692885436362800,9.29736279296875,0.2561053433567285,0.06172047004960477,-0.2628365513078868
1687692885446325500,9.307325439453125,0.248547475323081,0.041624753612652415,-0.20807868681252
1687692885456289500,9.31728955078125,0.13041560141742228,0.015201149328425525,-0.24372706942930816
1687692885466252500,9.32725244140625,0.07986731744110584,0.02046053116135299,-0.31866120478454973
1687692885476216600,9.337216552734375,0.23802140513360498,0.05316628445498645,-0.39612971745561804
1687692885486180600,9.3471806640625,0.52969899713099,0.009224559136852621,-0.31124738486409187
1687692885496143600,9.3571435546875,0.6361351725459099,-0.011942001402005553,-0.2250193002194166
1687692885506107600,9.367107666015626,0.4955272629380226,-0.019077698500826953,-0.22830683399010449
1687692885516070700,9.377070556640625,0.21102759974598884,0.06301584362238645,-0.17394436202049254
1687692885526034700,9.38703466796875,0.05330079755485057,0.13420944074243307,-0.23514720140416173
1687692885535997700,9.396997802734376,0.14383096330761908,0.13481785496436058,-0.21822353913206605
1687692885545961700,9.406961669921875,0.30848084276020526,0.049261751297116275,-0.237299155273661
1687692885555924700,9.4169248046875,0.278980607509613,-0.062131023611873386,-0.258443467448093
1687692885565888800,9.426888671875,0.07649521065950393,-0.1289095077034086,-0.3290638312574476
1687692885575851800,9.436851806640625,-0.1182715746372938,-0.12488434384055434,-0.40265634274538603
1687692885585815600,9.446815673828125,-0.199274033588171,-0.047413931473344564,-0.4653515761112794
1687692885595778800,9.45677880859375,-0.1634942796766758,-0.023430559948086738,-0.505027606808953
1687692885605742600,9.46674267578125,-0.04916121353209019,-0.060185150241106745,-0.542975827333331
1687692885615706600,9.47670654296875,0.0048953708261251444,-0.13320033676512538,-0.5094752704001962
1687692885625669600,9.486669677734374,-0.07288578799068927,-0.16870492699705064,-0.5020028521602973
1687692885635633700,9.496633544921876,-0.15218553467690943,-0.1454074188441038,-0.5488915907157584
1687692885645596700,9.5065966796875,-0.2124485724598169,-0.07708966942131519,-0.5541771664358676
1687692885655560700,9.516560791015625,-0.18199439748525617,-0.02695062383301556,-0.5901215363245457
1687692885665523500,9.5265234375,-0.08732932388484478,-0.05041976222582161,-0.61174767719917
1687692885675487700,9.53648779296875,-0.10887246265113353,-0.10860055037457496,-0.5526438193887472
1687692885685450500,9.546450439453125,-0.2413496727734804,-0.11195092024840414,-0.5088417948022484
1687692885695414500,9.55641455078125,-0.31309564307928084,-0.08105462752953171,-0.4614838312998414
1687692885705377500,9.56637744140625,-0.31627661120295525,-0.017792663658969102,-0.45165012728869913
1687692885715341600,9.576341552734375,-0.20683599327504634,0.003531936985813081,-0.4451104963868856
1687692885725304600,9.5863046875,-0.1014496191740036,-0.01829348932057619,-0.40222975136376915
1687692885735268600,9.5962685546875,0.043536359387636184,-0.10615549531001597,-0.4392123051937669
1687692885745232400,9.606232421875,0.13744623070657253,-0.13994944569915532,-0.4669596323624253
1687692885755195400,9.6161953125,0.06854337487220764,-0.08417085985392332,-0.425797235564515
1687692885765159400,9.626159423828126,-0.18341127854585645,-0.07373769211228937,-0.44020818436332043
1687692885775122400,9.636122314453125,-0.47141690403223035,0.010497720877826213,-0.45898536554761227
1687692885785086500,9.64608642578125,-0.6226847393423318,0.0639808161970228,-0.4783168196137994
1687692885795049500,9.656049560546874,-0.5673936447530985,0.03784048583358526,-0.48043140061497686
1687692885805013500,9.666013427734375,-0.41625674234628673,-0.10617759754396974,-0.4643378324914723
1687692885814976500,9.6759765625,-0.2867155856758356,-0.21476042959876357,-0.4519178383141756
1687692885824940500,9.6859404296875,-0.2743295668333769,-0.25692981148213145,-0.42803558907583356
1687692885834903600,9.695903564453126,-0.38624095878899095,-0.2347365382440388,-0.4232203708138317
1687692885844867600,9.70586767578125,-0.4561316566169262,-0.1078137473784387,-0.4222065175961703
1687692885854830600,9.71583056640625,-0.26785306429564953,0.0570301202762872,-0.3592595744915306
1687692885864794400,9.72579443359375,0.02673252410292625,0.12081585229262709,-0.2855889197334647
1687692885874758400,9.73575830078125,0.24876141033470628,0.08894823032356798,-0.22633264784030616
1687692885884721200,9.74572119140625,0.3070797437906265,0.011063355403952299,-0.16714776068292558
1687692885894685400,9.755685546875,0.15512509526014326,0.03538494590763003,-0.11424831047058105
1687692885904648200,9.765648193359375,0.03148877871930599,0.09739274499863386,-0.16960070679299533
1687692885914612200,9.7756123046875,0.02323474511504173,0.14299352610278873,-0.09320910263843833
1687692885924575200,9.7855751953125,0.05767652842104434,0.0716343996901065,-0.03854476164542139
1687692885934539300,9.795539306640626,0.061381812679767604,-0.0007332827106118202,-0.031118849428370593
1687692885944502300,9.805502197265625,0.012404723542928695,-0.05290193443037569,0.004783507949486374
1687692885954466300,9.81546630859375,-0.06839432179033755,-0.05528780665360391,0.006013342005386948
1687692885964429300,9.82542919921875,0.02997954320013523,-0.07712123360335826,-0.059733972407504915
1687692885974393300,9.835393310546875,0.21415186924636362,-0.10518873263709247,-0.1153726383253932
1687692885984356400,9.8453564453125,0.3955103069156408,-0.15283281960450112,-0.18793029034025965
1687692885994320400,9.8553203125,0.4985176769256591,-0.1505252367818728,-0.11572620100341736
1687692886004284400,9.865284423828125,0.4864163202434778,-0.07577486049570142,-0.01644691160582006
1687692886014247400,9.875247314453125,0.35415129156708713,0.06537413371894508,0.01242642391808331
1687692886024211500,9.88521142578125,0.29526772544384,0.1915779626602307,0.055502106991410255
1687692886034174500,9.895174560546875,0.48354222611188885,0.24468093608804045,0.058417775242403144
1687692886044138500,9.905138427734375,0.8152414473742247,0.19899762779958546,0.0076076254595071075
1687692886054101500,9.9151015625,1.1400678602576255,0.0862614754576236,0.036921252096816896
1687692886064065500,9.9250654296875,1.3081360237210988,0.011118117798492312,0.05393018149957061
1687692886074028500,9.935028564453125,1.1701011794716119,0.009362908161617814,0.16442995309159159
1687692886083992600,9.94499267578125,0.7798276041656732,0.11323248449154197,0.22310323746502397
1687692886093955300,9.954955322265626,0.39842122592628,0.2680333527659997,0.12576930998153985
1687692886103919600,9.964919677734375,0.33517771102786065,0.37883247263077646,0.19198804129846392
1687692886113883400,9.97488330078125,0.6076508363395929,0.2886375667143613,0.23287205954641102
1687692886123846400,9.984846435546874,1.0041068996727467,0.08979407003056257,0.16405220582038163
1687692886133810200,9.99481005859375,1.1966618541389704,-0.09188300513383,0.17484021488167345
1687692886143773400,10.0047734375,0.9988117158740758,-0.183525479510054,0.1508796397101134
1687692886153737200,10.0147373046875,0.5087409647762775,-0.13121456977538765,0.07692242309562862
1687692886163700200,10.0247001953125,0.10861761110723019,0.0916574162170291,-0.08017236480228603
1687692886173664300,10.034664306640625,0.06684533878266812,0.2997134528063237,-0.1462403625369072
1687692886183627300,10.044627197265624,0.3703665133088827,0.34338154881484806,-0.04738726266212761
1687692886193591300,10.05459130859375,0.6684691699177027,0.22003420528322457,0.007572554146125912
1687692886203554300,10.06455419921875,0.7327028648972511,0.04644625548496842,-0.02757218979746103
1687692886213518300,10.074518310546875,0.5090303031116724,-0.046537002508342265,-0.020436054307222364
1687692886223481300,10.0844814453125,0.14301730883717537,0.0004205634996294975,-0.15965053679533303
1687692886233445400,10.0944453125,-0.02616612239181995,0.0805745889276266,-0.2777070804424584
1687692886243409400,10.104409423828125,0.03850713304877281,0.1259877750378102,-0.17659392668120563
1687692886253372400,10.114372314453124,0.09901216289401053,0.11326061460748314,-0.10278145229965448
1687692886263336400,10.12433642578125,-0.0038701194316148758,0.022019012649729847,-0.09279065803065896
1687692886273299500,10.134299560546875,-0.25818682580590246,-0.08289477550350129,-0.06477101672664284
1687692886283263500,10.144263427734375,-0.5111281521737575,-0.08122633083462714,-0.14062274185083806
1687692886293226500,10.1542265625,-0.5478612612873316,-0.10571801720820367,-0.23883783608302472
1687692886303190500,10.1641904296875,-0.4176093259990215,-0.1818812194343656,-0.3223646258797496
1687692886313153500,10.174153564453125,-0.41147184615731236,-0.22693602056093512,-0.3312957550279796
1687692886323117600,10.18411767578125,-0.6068365973472595,-0.19123210836462676,-0.351225467248261
1687692886333080300,10.194080322265625,-0.8278092525243759,-0.06595555033609271,-0.32955914049372076
1687692886343044400,10.20404443359375,-0.8916326131373643,0.043049087327346205,-0.3846345465056598
1687692886353008400,10.21400830078125,-0.8035767285436392,0.06103913672193884,-0.4022464102376252
1687692886362971400,10.223971435546876,-0.7731003417372703,-0.04745397122278809,-0.3687397888898849
1687692886372935200,10.23393505859375,-0.8521323773980141,-0.1684082090727985,-0.3989835359841585
1687692886382898400,10.2438984375,-1.07097971098423,-0.237366740617156,-0.40345688200592994
1687692886392862200,10.2538623046875,-1.2665396924853325,-0.17708704396039246,-0.5119676717378199
1687692886402825500,10.263825439453125,-1.3776619798898697,-0.12232925253026186,-0.5494278530169278
1687692886412789200,10.273789306640625,-1.3618389723360538,-0.0699601828675717,-0.5753888082254678
1687692886422752300,10.283752197265626,-1.2298024917185306,-0.10752134030312299,-0.5641494021348655
1687692886432716300,10.29371630859375,-0.992820951026678,-0.24009631171151993,-0.5077342719517648
1687692886442679300,10.30367919921875,-0.7513339156091213,-0.37130803194269535,-0.4732280451074242
1687692886452643300,10.313643310546874,-0.650948710796237,-0.3508523961521685,-0.44361477793641385
1687692886462606300,10.3236064453125,-0.6438058533042669,-0.2178207670174539,-0.34947701614573595
1687692886472570400,10.3335703125,-0.6625853725761175,-0.0562369240719825,-0.22343254248462616
1687692886482534400,10.343534423828125,-0.5976087502747773,0.02358326629176736,-0.13429390415549278
1687692886492497400,10.353497314453126,-0.48130876797139643,0.06822360486593097,-0.0081955814152956
1687692886502461400,10.36346142578125,-0.2673655730396509,0.09010689883939921,0.05246054733842611
1687692886512424400,10.373424560546875,-0.12446399953663348,0.029434513070620595,0.1419048906158656
1687692886522388500,10.383388427734374,-0.051478842824697495,-0.04423932002522051,0.17040099032521247
1687692886532351500,10.3933515625,-0.03906009075641632,-0.08278576217107474,0.07004077382311225
1687692886542315500,10.4033154296875,0.06079729079008102,-0.09912084743287414,0.04779270165786147
1687692886552278300,10.4132783203125,0.23137772933542727,-0.03146349814757705,0.1047467610232532
1687692886562242600,10.42324267578125,0.42662557614743707,-0.008154518752545118,0.17872523962147532
1687692886572205300,10.433205322265625,0.5420370851784945,0.009118651076965033,0.25350509773045776
1687692886582169300,10.44316943359375,0.47391748867630956,0.04050444434583187,0.2636114812031388
1687692886592133400,10.45313330078125,0.29429040484428404,0.08545315474942326,0.3059190294481814
1687692886602096400,10.463096435546875,0.23654607188403606,0.12650646514967084,0.2064440713480115
1687692886612060400,10.473060302734375,0.3315267873048782,0.15411434731502086,0.22776377662196753
1687692886622023400,10.4830234375,0.5589654236257076,0.17493695325441658,0.21912403163574634
1687692886631987500,10.492987548828125,0.8976029197186232,0.09675820995476096,0.2149815250035375
1687692886641950500,10.502950439453125,1.1342138735324143,0.006440225647948682,0.2547780402757227
1687692886651914200,10.512914306640624,1.1670546513825655,-0.026714002065546808,0.3761547413215041
1687692886661877500,10.52287744140625,1.0805874972850085,0.019255173959583042,0.4182997194159776
1687692886671841300,10.53284130859375,0.8754261592239141,0.16592249320428817,0.4528092341959476
1687692886681804500,10.542804443359374,0.5911626428753137,0.36406255432646717,0.45816352777071295
1687692886691768300,10.552768310546876,0.3887736921370029,0.458775595254451,0.40738947221450506
1687692886701732400,10.562732421875,0.32230946162641044,0.3604395049910992,0.4108099481824785
1687692886711695400,10.5726953125,0.39305063880383967,0.14959939064122735,0.3122567811023444
1687692886721659400,10.582659423828124,0.5346329464018345,-0.04871916885301471,0.21945136389397082
1687692886731622400,10.592622314453125,0.565900775846839,-0.15900135217159986,0.23615590352267027
1687692886741586400,10.60258642578125,0.33914661465883256,-0.20430172555707393,0.2076747821867466
1687692886751549400,10.612549560546874,0.07702128036022186,-0.15929098276793957,0.16784326866641638
1687692886761513500,10.622513427734376,0.011608604729175567,-0.030776392666250464,0.15959646852053702
1687692886771476500,10.6324765625,0.23681553647518155,0.08187054702229797,0.19707747339196502
1687692886781440500,10.6424404296875,0.5859329255282879,0.08123224911876023,0.29361864306256175
1687692886791403500,10.652403564453126,0.6650912179172038,0.09208177910894155,0.362195847139135
1687692886801367600,10.662367431640625,0.31383564779162404,0.14656228796765208,0.39132651842497285
1687692886811330600,10.67233056640625,-0.12972352750003338,0.24807174757011233,0.3212235295532271
1687692886821294600,10.682294677734374,-0.3199152599662542,0.3199894211810082,0.21294289531540125
1687692886831258600,10.692258544921875,-0.148788293454051,0.3177027715485543,0.19027816864065825
1687692886841221600,10.7022216796875,0.10954290925860405,0.2082278860248625,0.2842673157408833
1687692886851185700,10.712185546875,0.13575871601104736,0.0421255427416414,0.35621016032565384
1687692886861148400,10.7221484375,-0.21456980239748955,-0.10640453816764056,0.40642588787935674
1687692886871112700,10.73211279296875,-0.722995709875226,-0.12195187058523296,0.3923609760392457
1687692886881075500,10.742075439453124,-0.9511468783795833,-0.05631576146185398,0.2598787609482184
1687692886891039500,10.75203955078125,-0.8609791161984205,-0.020681626566126942,0.2425399420039728
1687692886901002500,10.76200244140625,-0.7483879252851009,-0.06165193485803902,0.2299906954238191
1687692886910966300,10.77196630859375,-0.842807499691844,-0.10661292022131383,0.210535176586546
1687692886920929500,10.781929443359376,-1.007045291212201,-0.15550050444379448,0.25646858717855064
1687692886930893300,10.791893310546875,-1.0331190591454504,-0.17213256335817276,0.2313652351800352
1687692886940857300,10.801857421875,-0.8772235640347004,-0.13360782158747314,0.29436672148350623
1687692886950820400,10.8118203125,-0.619957944726944,-0.11641352568045257,0.3340283948622644
1687692886960784400,10.821784423828126,-0.42221828109920023,-0.1046192621860653,0.3414585083303973
1687692886970747400,10.831747314453125,-0.4654027583092451,-0.033070348822325464,0.46118115855883807
1687692886980711400,10.84171142578125,-0.7208990298569202,0.07611790177971124,0.5180060020539909
1687692886990674400,10.85167431640625,-0.92851185272336,0.21973916785940525,0.5117490970836952
1687692887000638500,10.861638427734375,-0.9393658396929502,0.3075220076654106,0.5137492213923484
1687692887010601500,10.8716015625,-0.7173860532999038,0.18121515674106775,0.49765499568171795
1687692887020565500,10.8815654296875,-0.39573534784317016,-0.05845905710086226,0.41543435658011585
1687692887030528500,10.891528564453125,-0.20008476544916629,-0.22575426343046126,0.4337434087960049
1687692887040492500,10.901492431640625,-0.16008943966925143,-0.2682106455616653,0.3537944774860516
1687692887050456600,10.91145654296875,-0.15058978991806507,-0.1639946304142475,0.33860041548553854
1687692887060419600,10.921419677734375,-0.0912146408855915,-0.03602006547339261,0.3309705416616052
1687692887070383600,10.931383544921875,-0.04074000666737556,0.056349225340038535,0.3011944851443171
1687692887080346600,10.9413466796875,0.005467033234238625,0.08986322627663612,0.2595044842757285
1687692887090310700,10.951310546875,0.12761106539070605,0.09838453251495957,0.2381490501012653
1687692887100273400,10.9612734375,0.29023440745174883,0.18061850602217017,0.198835276844725
1687692887110237400,10.971237548828125,0.3934142114192247,0.1490716404400766,0.1627881772339344
1687692887120200400,10.981200439453126,0.3366454454928636,0.03451609065122902,0.1023319184338674
1687692887130164500,10.99116455078125,0.06528057368397712,-0.016356091517210007,0.07104461710341274
1687692887140127500,11.00112744140625,-0.28795886373519897,-0.04897416652739048,0.0479508878942579
1687692887150091500,11.011091552734374,-0.5969383036673068,-0.01735883881896734,-0.038523463129065925
1687692887160055300,11.02105517578125,-0.712255120152235,0.0009358926106244325,-0.1448301304128021
1687692887170018600,11.0310185546875,-0.4278215079337358,-0.08989362141489982,-0.20653153043575584
1687692887179982300,11.040982421875,0.16331658502221105,-0.2796450627677142,-0.3045585182173177
1687692887189945300,11.0509453125,0.7543652461290359,-0.4873121000394225,-0.32211222202125933
1687692887199909400,11.060909423828125,1.1695651728987693,-0.5179601901508868,-0.312608078758046
1687692887209872400,11.070872314453124,1.2888356954455376,-0.28812822895273565,-0.23360081221237777
1687692887219836400,11.08083642578125,1.02476507229805,0.1176915827922523,-0.07462817467860877
1687692887229799400,11.09079931640625,0.6457096410989761,0.576313521854952,-0.008960574438422918
1687692887239763500,11.100763427734375,0.4227028497457504,0.9471930261872709,0.08193740171343088
1687692887249726500,11.1107265625,0.5165718045324087,1.0244975074030458,0.24735757141876966
1687692887259690500,11.1206904296875,0.6223194131612777,0.7218545039508492,0.36349100151620806
1687692887269654500,11.130654541015625,0.43245267486572264,0.2884877099148929,0.4447255156572908
1687692887279617500,11.140617431640624,0.027426351585984228,-0.03561426115147769,0.36632198715843256
1687692887289581600,11.15058154296875,-0.282647313323617,-0.25946459065675737,0.17510215375348925
1687692887299544600,11.160544677734375,-0.38152737427055833,-0.3929523660611361,-0.07171908229887484
1687692887309508600,11.170508544921875,-0.22651742982268333,-0.4377543614704162,-0.2004527950439602
1687692887319471400,11.180471435546876,0.03323006942868233,-0.3608396832898259,-0.15255232216268777
1687692887329435600,11.190435546875,0.2815565954774618,-0.21100926037169992,-0.010301686849072575
1687692887339398400,11.2003984375,0.48704585031867026,-0.14228636421412227,-0.09583017185702919
1687692887349362400,11.210362548828124,0.49983928091824054,-0.04317928957827389,-0.12102021575830876
1687692887359325400,11.220325439453125,0.27413375200033185,0.0948283744033426,-0.10480872034355998
1687692887369289500,11.23028955078125,-0.01696808593571186,0.23370668373964726,-0.2136819136470556
1687692887379253500,11.24025341796875,-0.1972737996816635,0.33273462872467935,-0.242572930958122
1687692887389216500,11.250216552734376,-0.29067046078145503,0.3701747901290655,-0.20749021940007806
1687692887399180300,11.26018017578125,-0.42275896384716033,0.24131365161202847,-0.18192703133746982
1687692887409143600,11.2701435546875,-0.5775584804147481,0.08890051872432231,-0.22659418485332278
1687692887419107300,11.280107421875,-0.7539438058465718,-0.051042497234046455,-0.2565904965251684
1687692887429070600,11.290070556640625,-0.8341898934721946,-0.17286087763272226,-0.35149946188405157
1687692887439034400,11.300034423828125,-0.682849577447772,-0.2686375657368451,-0.4464382378593087
1687692887448997400,11.309997314453126,-0.32718145157694817,-0.3671699092246592,-0.5585463944960385
1687692887458961400,11.31996142578125,0.05886719951033592,-0.411719171981886,-0.5759140742085874
1687692887468924400,11.32992431640625,0.34250586195886135,-0.40618638003505764,-0.5372313653972
1687692887478888400,11.339888427734374,0.4528717780381441,-0.2870662257444113,-0.4177105213511735
1687692887488852500,11.3498525390625,0.38684476990103717,-0.10219912236705422,-0.28277451989986
1687692887498815500,11.3598154296875,0.16017477986514567,0.12420830774251371,-0.14906659893877802
1687692887508779500,11.369779541015625,-0.07805237697362899,0.2908942230673507,-0.09365326620936393
1687692887518742500,11.379742431640626,-0.19229308865964412,0.39468602145332843,-0.13956358818672596
1687692887528706600,11.38970654296875,-0.05300736756622791,0.4114212850138545,-0.16164879794046283
1687692887538669600,11.399669677734375,0.26084990753531456,0.21560130086969584,-0.1262794514607638
1687692887548633600,11.409633544921874,0.4623568147420883,-0.042116519184969364,-0.028723844050616024
1687692887558596400,11.419596435546875,0.3435691072762012,-0.19972601513937113,-0.05206438762769103
1687692887568560400,11.429560302734375,0.015510288342833517,-0.2080178234707564,-0.1518334333036095
1687692887578524700,11.439524658203124,-0.17203531352877616,-0.053675256890431046,-0.24450799067392945
1687692887588487400,11.4494873046875,-0.056280105626583095,0.07605338517613709,-0.28022023230716586
1687692887598451500,11.459451416015625,0.2328098079651594,0.07064020102098584,-0.21370061834752557
1687692887608414500,11.46941455078125,0.3948462900489568,-0.005962123274803161,-0.20471775901205835
1687692887618378500,11.47937841796875,0.35157121194601054,-0.0028486674293875694,-0.312005728950724
1687692887628341500,11.489341552734375,0.22026012299358844,-0.034172610975801945,-0.3756551943015307
1687692887638305500,11.499305419921875,0.08530512458086013,0.016874598965980113,-0.3896509864281863
1687692887648268500,11.5092685546875,-0.020650573840737343,0.10568743940684944,-0.3634949470389634
1687692887658232600,11.519232666015625,-0.13894552935361862,0.18124441936817018,-0.30583062051236626
1687692887668195600,11.529195556640625,-0.2712169877707958,0.20459924719892442,-0.181249205141142
1687692887678159400,11.539159423828124,-0.3722919284135103,0.11712883434295654,-0.15622925710976124
1687692887688123400,11.549123291015626,-0.33524960722029207,0.016635419915243983,-0.19947781253196298
1687692887698086400,11.55908642578125,-0.23362170886993408,-0.05422616877146065,-0.27551380818188187
1687692887708050400,11.569050537109375,-0.12718494893312454,-0.11619900614693761,-0.27958427249118684
1687692887718013400,11.579013427734376,-0.05780863036811351,-0.12807875596769153,-0.3282555836144835
1687692887727977500,11.5889775390625,-0.017690554991364477,-0.09084208124615252,-0.3142071845177561
1687692887737940500,11.5989404296875,-0.02362695930302143,-0.03901413272283971,-0.295244856024906
1687692887747904000,11.608904052734376,-0.03638882572054863,0.06889905644208193,-0.23472492087148128
1687692887757867000,11.618866943359375,-0.0849012199550867,0.1593114775666967,-0.13057663719803095
1687692887767831000,11.6288310546875,-0.19279636200666425,0.16032631716504692,-0.013970876881107687
1687692887777794000,11.6387939453125,-0.39666298408210277,0.09502108396384865,-0.007356207981705666
1687692887787758000,11.648758056640625,-0.6526280421853065,-0.012713862557336687,-0.03215118815079331
1687692887797722000,11.65872216796875,-0.7770949643313885,-0.049277679518610236,-0.07691117104925214
1687692887807684900,11.668684814453124,-0.5682371098399162,-0.08917078703306615,-0.17730755484327673
1687692887817649200,11.678649169921876,-0.25543898840248586,-0.15288506124839185,-0.10080452620349824
1687692887827612000,11.68861181640625,-0.11570260093212127,-0.21925379549525678,-0.057469899933040136
1687692887837576000,11.698575927734375,-0.20872750611007213,-0.24857699367851016,-0.061713821113109586
1687692887847539000,11.7085390625,-0.45333647294044493,-0.13627777144908904,-0.050074821245670316
1687692887857503000,11.7185029296875,-0.6772264768689871,0.08002652659080922,-0.06246171687096357
1687692887867466000,11.728466064453125,-0.636836014291644,0.20178674706146119,-0.08372282382547855
1687692887877430000,11.738429931640624,-0.27809914849996564,0.13545505688935516,-0.053697760983183976
1687692887887394000,11.74839404296875,0.17157763288915157,-0.03963431044779718,0.03357099182084203
1687692887897357000,11.758357177734375,0.4064730149567127,-0.18660284112878142,0.12665011140406132
1687692887907321000,11.768321044921874,0.2802355760067701,-0.21139003985021262,0.15317710299752652
1687692887917284000,11.7782841796875,-0.05393500380516052,-0.027461167171038685,0.17581227478422223
1687692887927248100,11.788248046875,-0.2733779651969671,0.24310579572580754,0.20349552374072372
1687692887937211100,11.798211181640625,-0.1495376505166292,0.3950017728716135,0.2345373624101281
1687692887947175000,11.8081748046875,0.08858779951333999,0.2871422135900706,0.2978014817051589
1687692887957138200,11.81813818359375,0.33857845938205716,0.019736673866212365,0.40707485330738125
1687692887967102000,11.82810205078125,0.4704202942103147,-0.14308825518153606,0.34482202994674443
1687692887977065000,11.83806494140625,0.3928308585733175,-0.15250000745356082,0.2793840737439692
1687692887987029000,11.848029052734375,0.21062895581722257,-0.07831804217249154,0.18738807322233914
1687692887996993000,11.857992919921875,0.05359773467481136,0.0687470076855272,0.10523366775736212
1687692888006956000,11.8679560546875,0.06541501371860504,0.17432094024792313,0.1412365629002452
1687692888016920000,11.877920166015626,0.29459494074881076,0.12547427255772053,0.24271928062625228
1687692888026883000,11.887883056640625,0.49675358986258505,0.05649586726911365,0.31935236538648604
1687692888036847000,11.89784716796875,0.5406786563068628,0.008237813121825456,0.4126365060225129
1687692888046809900,11.907809814453126,0.4167722906529903,0.011657046980783342,0.37427901057749985
1687692888056774000,11.91777392578125,0.26683716525137424,0.1311272568181157,0.2595196087796241
1687692888066737000,11.92773681640625,0.15387831006944178,0.25884653182365,0.23078772755302487
1687692888076701000,11.937700927734374,0.23845628941953181,0.299466784568876,0.1322722621347755
1687692888086665000,11.9476650390625,0.39079496883153914,0.2811305520851165,0.1938281892724335
1687692888096627000,11.957626953125,0.4064700923472643,0.2132617885388434,0.22383695856705307
1687692888106590000,11.96758984375,0.22038521067798136,0.12663856709674,0.22558760162666439
1687692888116554000,11.977553955078125,-0.030086510705947873,0.06135908939130604,0.20183328961692748
1687692888126517000,11.98751708984375,-0.28824644850492476,0.12545417961776256,0.2105832900445908
1687692888136481000,11.99748095703125,-0.30337387501001356,0.1702221996922046,0.07942315387018024
1687692888146445000,12.007445068359376,-0.08556991299688815,0.2024900730252266,-0.01491736395098269
1687692888156408000,12.017407958984375,0.11647884600162506,0.15203114783279598,0.3200868171408772
1687692888166372000,12.0273720703125,0.07398059749007224,0.09494637475982308,0.4428541688274592
1687692888176335000,12.037335205078126,-0.03744154964387417,0.05162088164389133,0.47131147089637815
1687692888186299100,12.047299072265625,-0.12341595178842543,0.06778488465510309,0.46206155812256033
1687692888196262100,12.05726220703125,-0.04246200815439224,0.1021517030287534,0.41517731307912614
1687692888206226200,12.06722607421875,0.13493570919036865,0.06944689958319067,0.3484356903992593
1687692888216189000,12.07718896484375,0.19686697244644163,-0.021654782447218895,0.4513366774253547
1687692888226153200,12.0871533203125,-0.1274210957765579,-0.05630414408929646,0.48833048330172896
1687692888236117200,12.0971171875,-0.5186275680184363,-0.038336306526511904,0.4891692722134292
1687692888246080000,12.107080078125,-0.6063561203539372,-0.030240459158644078,0.3310447759415954
1687692888256044000,12.1170439453125,-0.48120881472826,-0.09933686480373144,0.18812267110720277
1687692888266007000,12.127007080078124,-0.3160796273261309,-0.2156011182066053,0.14388934243135154
1687692888275970800,12.136970703125,-0.24898469769656656,-0.29434388859719035,0.07448029064051806
1687692888285934000,12.14693408203125,-0.4650099595993757,-0.3957324252337217,0.023506657391600308
1687692888295897900,12.15689794921875,-0.8446317925095558,-0.3708040279433131,0.0027313977252691984
1687692888305861000,12.166861083984376,-1.038515365231037,-0.1955131466846913,0.0032620340032503007
1687692888315825000,12.176824951171875,-0.9259341111898421,-0.020792247333750128,0.032746925554238256
1687692888325788000,12.186787841796875,-0.6591086363762617,0.04227817602008581,0.07950842100083827
1687692888335752000,12.196751953125,-0.5103285262286663,-0.005820961238443851,0.11759860727917403
1687692888345716000,12.206716064453126,-0.534727054426074,-0.11130232014656066,0.11072788125947117
1687692888355679000,12.216678955078125,-0.6604501141130924,-0.15537074058428404,0.024345154042355713
1687692888365643000,12.22664306640625,-0.7991378693133592,-0.13900668495632706,-0.051516288758255535
1687692888375606000,12.23660595703125,-0.8210574401766061,-0.08731434551142156,-0.18193284002374857
1687692888385570000,12.246570068359375,-0.7204086159914731,-0.03395823757275939,-0.33227216231208295
1687692888395533000,12.256532958984375,-0.5195575423449278,-0.017336700052395463,-0.37744890931788827
1687692888405497000,12.2664970703125,-0.30605332335233687,0.018292977863922713,-0.1598279391888529
1687692888415460000,12.276460205078125,-0.15223814164698124,0.09719371529519558,0.19172628508973866
1687692888425424100,12.286424072265625,-0.12166764681637286,0.2010306679971516,0.6180607328034937
1687692888435388200,12.29638818359375,-0.24921149218976496,0.3202512869875878,0.731452718705684
1687692888445352200,12.306352294921876,-0.5493401016682387,0.3331629371393472,0.3572069893432781
1687692888455315200,12.316315185546875,-0.998289153304696,0.234551537065953,-0.06714965549148619
